<?xml version="1.0" encoding="UTF-8"?>
<?xml-stylesheet type="text/xsl" href="./define2-0-0.xsl"?>

<!-- ************************************************************************************** -->
<!-- File: define.xml                                                                       -->
<!-- Date: 24/03/2022                                                                        -->
<!-- Author: Generated by SAS 9.4 on X64_SR12R2 for Ono Pharmaceutical Co., Ltd.                            -->
<!-- Description: This define.xml for study ONO-4578-07 is based on the define.xml              -->
<!--    example of the published Metadata Submission Guideline (SDTM-MSG) V1, with          -->
<!--    metadata adjustments to comply with the Define-XML Specifications.                  -->
<!-- Release Notes:                                                                         -->
<!-- 1. If the define.xml document includes a style sheet reference (i.e, uncommented       -->
<!--    line #2 in  this example) and the style sheet is available in the location          -->
<!--    specified in the href attribute, most browser applications will display and         -->
<!--    format the contents of the define.xml document based on the stylesheet              -->
<!--    instructions.                                                                       -->
<!--    a. The href attribute should be adjusted as necessary to reflect the                -->
<!--       corresponding stylesheet location.                                               -->
<!--    b. The stylesheet should have been developed to interpret the Define-XML            -->
<!--       specification version indicated in the define.xml document.                      -->
<!--    c. The resulting HTML presentation and the availability and usability of            -->
<!--       functions will vary depending upon which browser application is used.            -->
<!-- ************************************************************************************** -->
<!-- Study ID: ONO-4578-07 -->
<!-- Trial Phase: I -->
<!-- Protocol Title: ONO-4578-07 -->
<!-- Sponsor: Ono Pharmaceutical Co., Ltd. -->
<!-- ************************************************************************************** -->

<ODM
  xmlns="http://www.cdisc.org/ns/odm/v1.3"
  xmlns:xlink="http://www.w3.org/1999/xlink"
  xmlns:def="http://www.cdisc.org/ns/def/v2.0"
  ODMVersion="1.3.2"
  FileOID="www.cdisc.org.Studycdisc01-Define-XML_2.0.0"
  FileType="Snapshot"
  CreationDateTime="2023-03-02T03:17:48+00:00"
  Originator="Ono Pharmaceutical Co., Ltd. "
  SourceSystem="PPD Define on Demand"
  SourceSystemVersion="1.0"
  >

<!-- ******************************************  -->
<!-- OID conventions used in this example:       -->
<!--    MetaDataVersion         = MDV.           -->
<!--    def:leaf, leafID        = LF.            -->
<!--    def:ValueListDef        = VL.            -->
<!--    def:WhereClauseDef      = WC.            -->
<!--    ItemGroupDef            = IG.            -->
<!--    ItemDef                 = IT.            -->
<!--    CodeList                = CL.            -->
<!--    MethodDef               = MT.            -->
<!--    def:CommentDef          = COM.           -->
<!-- ******************************************  -->

<Study OID="ONO-4578-07">
  <GlobalVariables>
    <StudyName>ONO-4578-07</StudyName>
    <StudyDescription>ONO-4578 clinical pharmacology study: An open-label, randomized, 3-way, 3-period, crossover, single-dose study to evaluate relative bioavailability and food effect on pharmacokinetics in healthy adult</StudyDescription>
     <ProtocolName>ONO-4578-07</ProtocolName>
  </GlobalVariables>

  <MetaDataVersion OID="CDISC.SDTM.3.2"
    Name="CDISC SDTM Data Definitions"
    Description="Study ONO-4578-07, Data Definitions"
    def:DefineVersion="2.0.0"
    def:StandardName="SDTM-IG"
    def:StandardVersion="3.2">

         <!-- ***************************** -->
         <!-- Supporting Documents - acrf   -->
         <!-- ***************************** -->

         <def:AnnotatedCRF>
           <def:DocumentRef leafID="LF.BLANKCRF"/>
         </def:AnnotatedCRF>

         <!-- ****************************** -->
         <!-- Supporting Documents - other   -->
         <!-- ****************************** -->

         <def:SupplementalDoc>
           <def:DocumentRef leafID="LF.CSDRG"/>
           <def:DocumentRef leafID="LF.TOXICITY-GRADE-DERIVATION-LIST"/>
         </def:SupplementalDoc>

         <!-- **************************** -->
         <!-- Supporting Documents : END   -->
         <!-- **************************** -->

         <!-- ****************************** -->
         <!--  ValueListDef Elements : START -->
         <!-- ****************************** -->

         <!-- ** ValueListDef for: VL.DS.DSDECOD ** -->
         <def:ValueListDef  OID = "VL.DS.DSDECOD">

           <ItemRef ItemOID = "IT.DS.DSSPID.DSDECOD.SUBSET1"
             OrderNumber ="1"
             Mandatory = "No">
               <def:WhereClauseRef WhereClauseOID="WC.DS.DSSPID.DSDECOD.SUBSET1"/>
             </ItemRef>
           <ItemRef ItemOID = "IT.DS.DSSPID.DSDECOD.SUBSET2"
             OrderNumber ="2"
             Mandatory = "No">
               <def:WhereClauseRef WhereClauseOID="WC.DS.DSSPID.DSDECOD.SUBSET2"/>
             </ItemRef>
         </def:ValueListDef>

         <!-- ** ValueListDef for: VL.DS.DSTERM ** -->
         <def:ValueListDef  OID = "VL.DS.DSTERM">

           <ItemRef ItemOID = "IT.DS.DSSPID.DSTERM.SUBSET3"
             OrderNumber ="1"
             Mandatory = "No">
               <def:WhereClauseRef WhereClauseOID="WC.DS.DSSPID.DSTERM.SUBSET3"/>
             </ItemRef>
           <ItemRef ItemOID = "IT.DS.DSSPID.DSTERM.SUBSET4"
             OrderNumber ="2"
             Mandatory = "No">
               <def:WhereClauseRef WhereClauseOID="WC.DS.DSSPID.DSTERM.SUBSET4"/>
             </ItemRef>
         </def:ValueListDef>

         <!-- ** ValueListDef for: VL.IE.IEORRES ** -->
         <def:ValueListDef  OID = "VL.IE.IEORRES">

           <ItemRef ItemOID = "IT.IE.IETESTCD.IEORRES.SUBSET1"
             OrderNumber ="1"
             Mandatory = "No">
               <def:WhereClauseRef WhereClauseOID="WC.IE.IETESTCD.IEORRES.SUBSET1"/>
             </ItemRef>
         </def:ValueListDef>



         <!-- ** ValueListDef for: VL.EG.EGORRES ** -->
         <def:ValueListDef  OID = "VL.EG.EGORRES">

           <ItemRef ItemOID = "IT.EG.EGTESTCD.EGORRES.EGHRMN"
             OrderNumber ="1"
             Mandatory = "No">
               <def:WhereClauseRef WhereClauseOID="WC.EG.EGTESTCD.EGORRES.EGHRMN"/>
             </ItemRef>
			<ItemRef ItemOID = "IT.EG.EGTESTCD.EGORRES.INTP"
             OrderNumber ="2"
             Mandatory = "No">
               <def:WhereClauseRef WhereClauseOID="WC.EG.EGTESTCD.EGORRES.INTP"/>
             </ItemRef>
		   <ItemRef ItemOID = "IT.EG.EGTESTCD.EGORRES.PRAG"
             OrderNumber ="3"
             Mandatory = "No">
               <def:WhereClauseRef WhereClauseOID="WC.EG.EGTESTCD.EGORRES.PRAG"/>
             </ItemRef>
		   <ItemRef ItemOID = "IT.EG.EGTESTCD.EGORRES.QRSAG"
             OrderNumber ="4"
             Mandatory = "No">
               <def:WhereClauseRef WhereClauseOID="WC.EG.EGTESTCD.EGORRES.QRSAG"/>
             </ItemRef>
		   <ItemRef ItemOID = "IT.EG.EGTESTCD.EGORRES.QTAG"
             OrderNumber ="5"
             Mandatory = "No">
               <def:WhereClauseRef WhereClauseOID="WC.EG.EGTESTCD.EGORRES.QTAG"/>
             </ItemRef>
		   <ItemRef ItemOID = "IT.EG.EGTESTCD.EGORRES.QTCFAG"
             OrderNumber ="6"
             Mandatory = "No">
               <def:WhereClauseRef WhereClauseOID="WC.EG.EGTESTCD.EGORRES.QTCFAG"/>
             </ItemRef>
		   <ItemRef ItemOID = "IT.EG.EGTESTCD.EGORRES.RRAG"
             OrderNumber ="7"
             Mandatory = "No">
               <def:WhereClauseRef WhereClauseOID="WC.EG.EGTESTCD.EGORRES.RRAG"/>
             </ItemRef>
         </def:ValueListDef>



         <!-- ** ValueListDef for: VL.LB.LBORRES ** -->
         <def:ValueListDef  OID = "VL.LB.LBORRES">

           <ItemRef ItemOID = "IT.LB.LBTESTCD.LBORRES.ALB"
             OrderNumber ="11"
             Mandatory = "No">
               <def:WhereClauseRef WhereClauseOID="WC.LB.LBTESTCD.LBORRES.ALB"/>
             </ItemRef>
           <ItemRef ItemOID = "IT.LB.LBTESTCD.LBORRES.ALP"
             OrderNumber ="12"
             Mandatory = "No">
               <def:WhereClauseRef WhereClauseOID="WC.LB.LBTESTCD.LBORRES.ALP"/>
             </ItemRef>
           <ItemRef ItemOID = "IT.LB.LBTESTCD.LBORRES.ALT"
             OrderNumber ="13"
             Mandatory = "No">
               <def:WhereClauseRef WhereClauseOID="WC.LB.LBTESTCD.LBORRES.ALT"/>
             </ItemRef>
           <ItemRef ItemOID = "IT.LB.LBTESTCD.LBORRES.AMYLASE"
             OrderNumber ="14"
             Mandatory = "No">
               <def:WhereClauseRef WhereClauseOID="WC.LB.LBTESTCD.LBORRES.AMYLASE"/>
             </ItemRef>
           <ItemRef ItemOID = "IT.LB.LBTESTCD.LBORRES.APTT"
             OrderNumber ="15"
             Mandatory = "No">
               <def:WhereClauseRef WhereClauseOID="WC.LB.LBTESTCD.LBORRES.APTT"/>
             </ItemRef>
           <ItemRef ItemOID = "IT.LB.LBTESTCD.LBORRES.AST"
             OrderNumber ="16"
             Mandatory = "No">
               <def:WhereClauseRef WhereClauseOID="WC.LB.LBTESTCD.LBORRES.AST"/>
             </ItemRef>
           <ItemRef ItemOID = "IT.LB.LBTESTCD.LBORRES.BASOLE"
             OrderNumber ="17"
             Mandatory = "No">
               <def:WhereClauseRef WhereClauseOID="WC.LB.LBTESTCD.LBORRES.BASOLE"/>
             </ItemRef>
           <ItemRef ItemOID = "IT.LB.LBTESTCD.LBORRES.CA"
             OrderNumber ="18"
             Mandatory = "No">
               <def:WhereClauseRef WhereClauseOID="WC.LB.LBTESTCD.LBORRES.CA"/>
             </ItemRef>
           <ItemRef ItemOID = "IT.LB.LBCAT.LBORRES.CHEMISTRYandLBTESTCDEQBILI"
             OrderNumber ="1"
             Mandatory = "No">
               <def:WhereClauseRef WhereClauseOID="WC.LB.LBCAT.LBORRES.CHEMISTRYandLBTESTCDEQBILI"/>
             </ItemRef>
           <ItemRef ItemOID = "IT.LB.LBCAT.LBORRES.CHEMISTRYandLBTESTCDEQGLUC"
             OrderNumber ="2"
             Mandatory = "No">
               <def:WhereClauseRef WhereClauseOID="WC.LB.LBCAT.LBORRES.CHEMISTRYandLBTESTCDEQGLUC"/>
             </ItemRef>
           <ItemRef ItemOID = "IT.LB.LBCAT.LBORRES.CHEMISTRYandLBTESTCDEQPROT"
             OrderNumber ="3"
             Mandatory = "No">
               <def:WhereClauseRef WhereClauseOID="WC.LB.LBCAT.LBORRES.CHEMISTRYandLBTESTCDEQPROT"/>
             </ItemRef>
           <ItemRef ItemOID = "IT.LB.LBTESTCD.LBORRES.CHOL"
             OrderNumber ="19"
             Mandatory = "No">
               <def:WhereClauseRef WhereClauseOID="WC.LB.LBTESTCD.LBORRES.CHOL"/>
             </ItemRef>
           <ItemRef ItemOID = "IT.LB.LBTESTCD.LBORRES.CK"
             OrderNumber ="20"
             Mandatory = "No">
               <def:WhereClauseRef WhereClauseOID="WC.LB.LBTESTCD.LBORRES.CK"/>
             </ItemRef>
           <ItemRef ItemOID = "IT.LB.LBTESTCD.LBORRES.CL"
             OrderNumber ="21"
             Mandatory = "No">
               <def:WhereClauseRef WhereClauseOID="WC.LB.LBTESTCD.LBORRES.CL"/>
             </ItemRef>
           <ItemRef ItemOID = "IT.LB.LBTESTCD.LBORRES.CREAT"
             OrderNumber ="22"
             Mandatory = "No">
               <def:WhereClauseRef WhereClauseOID="WC.LB.LBTESTCD.LBORRES.CREAT"/>
             </ItemRef>
           <ItemRef ItemOID = "IT.LB.LBTESTCD.LBORRES.CRP"
             OrderNumber ="23"
             Mandatory = "No">
               <def:WhereClauseRef WhereClauseOID="WC.LB.LBTESTCD.LBORRES.CRP"/>
             </ItemRef>
           <ItemRef ItemOID = "IT.LB.LBTESTCD.LBORRES.DRUGSCR"
             OrderNumber ="24"
             Mandatory = "No">
               <def:WhereClauseRef WhereClauseOID="WC.LB.LBTESTCD.LBORRES.DRUGSCR"/>
             </ItemRef>
           <ItemRef ItemOID = "IT.LB.LBTESTCD.LBORRES.EOSLE"
             OrderNumber ="25"
             Mandatory = "No">
               <def:WhereClauseRef WhereClauseOID="WC.LB.LBTESTCD.LBORRES.EOSLE"/>
             </ItemRef>
           <ItemRef ItemOID = "IT.LB.LBTESTCD.LBORRES.EPISQCE"
             OrderNumber ="26"
             Mandatory = "No">
               <def:WhereClauseRef WhereClauseOID="WC.LB.LBTESTCD.LBORRES.EPISQCE"/>
             </ItemRef>
           <ItemRef ItemOID = "IT.LB.LBTESTCD.LBORRES.GGT"
             OrderNumber ="27"
             Mandatory = "No">
               <def:WhereClauseRef WhereClauseOID="WC.LB.LBTESTCD.LBORRES.GGT"/>
             </ItemRef>
           <ItemRef ItemOID = "IT.LB.LBTESTCD.LBORRES.HCT"
             OrderNumber ="28"
             Mandatory = "No">
               <def:WhereClauseRef WhereClauseOID="WC.LB.LBTESTCD.LBORRES.HCT"/>
             </ItemRef>
           <ItemRef ItemOID = "IT.LB.LBCAT.LBORRES.HEMATOLOGYandLBTESTCDEQRBC"
             OrderNumber ="4"
             Mandatory = "No">
               <def:WhereClauseRef WhereClauseOID="WC.LB.LBCAT.LBORRES.HEMATOLOGYandLBTESTCDEQRBC"/>
             </ItemRef>
           <ItemRef ItemOID = "IT.LB.LBCAT.LBORRES.HEMATOLOGYandLBTESTCDEQWBC"
             OrderNumber ="5"
             Mandatory = "No">
               <def:WhereClauseRef WhereClauseOID="WC.LB.LBCAT.LBORRES.HEMATOLOGYandLBTESTCDEQWBC"/>
             </ItemRef>
           <ItemRef ItemOID = "IT.LB.LBTESTCD.LBORRES.HGB"
             OrderNumber ="29"
             Mandatory = "No">
               <def:WhereClauseRef WhereClauseOID="WC.LB.LBTESTCD.LBORRES.HGB"/>
             </ItemRef>
           <ItemRef ItemOID = "IT.LB.LBTESTCD.LBORRES.INR"
             OrderNumber ="30"
             Mandatory = "No">
               <def:WhereClauseRef WhereClauseOID="WC.LB.LBTESTCD.LBORRES.INR"/>
             </ItemRef>
           <ItemRef ItemOID = "IT.LB.LBTESTCD.LBORRES.K"
             OrderNumber ="31"
             Mandatory = "No">
               <def:WhereClauseRef WhereClauseOID="WC.LB.LBTESTCD.LBORRES.K"/>
             </ItemRef>
           <ItemRef ItemOID = "IT.LB.LBTESTCD.LBORRES.KETONES"
             OrderNumber ="32"
             Mandatory = "No">
               <def:WhereClauseRef WhereClauseOID="WC.LB.LBTESTCD.LBORRES.KETONES"/>
             </ItemRef>
           <ItemRef ItemOID = "IT.LB.LBTESTCD.LBORRES.LBALL"
             OrderNumber ="33"
             Mandatory = "No">
               <def:WhereClauseRef WhereClauseOID="WC.LB.LBTESTCD.LBORRES.LBALL"/>
             </ItemRef>
           <ItemRef ItemOID = "IT.LB.LBTESTCD.LBORRES.LDH"
             OrderNumber ="34"
             Mandatory = "No">
               <def:WhereClauseRef WhereClauseOID="WC.LB.LBTESTCD.LBORRES.LDH"/>
             </ItemRef>
           <ItemRef ItemOID = "IT.LB.LBTESTCD.LBORRES.LYMLE"
             OrderNumber ="35"
             Mandatory = "No">
               <def:WhereClauseRef WhereClauseOID="WC.LB.LBTESTCD.LBORRES.LYMLE"/>
             </ItemRef>
           <ItemRef ItemOID = "IT.LB.LBTESTCD.LBORRES.MCH"
             OrderNumber ="36"
             Mandatory = "No">
               <def:WhereClauseRef WhereClauseOID="WC.LB.LBTESTCD.LBORRES.MCH"/>
             </ItemRef>
           <ItemRef ItemOID = "IT.LB.LBTESTCD.LBORRES.MCHC"
             OrderNumber ="37"
             Mandatory = "No">
               <def:WhereClauseRef WhereClauseOID="WC.LB.LBTESTCD.LBORRES.MCHC"/>
             </ItemRef>
           <ItemRef ItemOID = "IT.LB.LBTESTCD.LBORRES.MCV"
             OrderNumber ="38"
             Mandatory = "No">
               <def:WhereClauseRef WhereClauseOID="WC.LB.LBTESTCD.LBORRES.MCV"/>
             </ItemRef>
           <ItemRef ItemOID = "IT.LB.LBTESTCD.LBORRES.MG"
             OrderNumber ="39"
             Mandatory = "No">
               <def:WhereClauseRef WhereClauseOID="WC.LB.LBTESTCD.LBORRES.MG"/>
             </ItemRef>
           <ItemRef ItemOID = "IT.LB.LBTESTCD.LBORRES.MONOLE"
             OrderNumber ="40"
             Mandatory = "No">
               <def:WhereClauseRef WhereClauseOID="WC.LB.LBTESTCD.LBORRES.MONOLE"/>
             </ItemRef>
           <ItemRef ItemOID = "IT.LB.LBTESTCD.LBORRES.NEUTLE"
             OrderNumber ="41"
             Mandatory = "No">
               <def:WhereClauseRef WhereClauseOID="WC.LB.LBTESTCD.LBORRES.NEUTLE"/>
             </ItemRef>
           <ItemRef ItemOID = "IT.LB.LBTESTCD.LBORRES.OCCBLD"
             OrderNumber ="42"
             Mandatory = "No">
               <def:WhereClauseRef WhereClauseOID="WC.LB.LBTESTCD.LBORRES.OCCBLD"/>
             </ItemRef>
           <ItemRef ItemOID = "IT.LB.LBTESTCD.LBORRES.PH"
             OrderNumber ="43"
             Mandatory = "No">
               <def:WhereClauseRef WhereClauseOID="WC.LB.LBTESTCD.LBORRES.PH"/>
             </ItemRef>
           <ItemRef ItemOID = "IT.LB.LBTESTCD.LBORRES.PHOS"
             OrderNumber ="44"
             Mandatory = "No">
               <def:WhereClauseRef WhereClauseOID="WC.LB.LBTESTCD.LBORRES.PHOS"/>
             </ItemRef>
           <ItemRef ItemOID = "IT.LB.LBTESTCD.LBORRES.PLAT"
             OrderNumber ="45"
             Mandatory = "No">
               <def:WhereClauseRef WhereClauseOID="WC.LB.LBTESTCD.LBORRES.PLAT"/>
             </ItemRef>
           <ItemRef ItemOID = "IT.LB.LBTESTCD.LBORRES.SARSCOV2"
             OrderNumber ="46"
             Mandatory = "No">
               <def:WhereClauseRef WhereClauseOID="WC.LB.LBTESTCD.LBORRES.SARSCOV2"/>
             </ItemRef>
           <ItemRef ItemOID = "IT.LB.LBTESTCD.LBORRES.SEDEXAM"
             OrderNumber ="47"
             Mandatory = "No">
               <def:WhereClauseRef WhereClauseOID="WC.LB.LBTESTCD.LBORRES.SEDEXAM"/>
             </ItemRef>
           <ItemRef ItemOID = "IT.LB.LBTESTCD.LBORRES.SODIUM"
             OrderNumber ="48"
             Mandatory = "No">
               <def:WhereClauseRef WhereClauseOID="WC.LB.LBTESTCD.LBORRES.SODIUM"/>
             </ItemRef>
           <ItemRef ItemOID = "IT.LB.LBTESTCD.LBORRES.SPGRAV"
             OrderNumber ="49"
             Mandatory = "No">
               <def:WhereClauseRef WhereClauseOID="WC.LB.LBTESTCD.LBORRES.SPGRAV"/>
             </ItemRef>
           <ItemRef ItemOID = "IT.LB.LBTESTCD.LBORRES.TRIG"
             OrderNumber ="50"
             Mandatory = "No">
               <def:WhereClauseRef WhereClauseOID="WC.LB.LBTESTCD.LBORRES.TRIG"/>
             </ItemRef>
           <ItemRef ItemOID = "IT.LB.LBTESTCD.LBORRES.UGT1A1"
             OrderNumber ="51"
             Mandatory = "No">
               <def:WhereClauseRef WhereClauseOID="WC.LB.LBTESTCD.LBORRES.UGT1A1"/>
             </ItemRef>
           <ItemRef ItemOID = "IT.LB.LBTESTCD.LBORRES.UGT28HO"
             OrderNumber ="52"
             Mandatory = "No">
               <def:WhereClauseRef WhereClauseOID="WC.LB.LBTESTCD.LBORRES.UGT28HO"/>
             </ItemRef>
           <ItemRef ItemOID = "IT.LB.LBTESTCD.LBORRES.UGT28HT"
             OrderNumber ="53"
             Mandatory = "No">
               <def:WhereClauseRef WhereClauseOID="WC.LB.LBTESTCD.LBORRES.UGT28HT"/>
             </ItemRef>
           <ItemRef ItemOID = "IT.LB.LBTESTCD.LBORRES.UGT6HO"
             OrderNumber ="54"
             Mandatory = "No">
               <def:WhereClauseRef WhereClauseOID="WC.LB.LBTESTCD.LBORRES.UGT6HO"/>
             </ItemRef>
           <ItemRef ItemOID = "IT.LB.LBTESTCD.LBORRES.UGT6HT"
             OrderNumber ="55"
             Mandatory = "No">
               <def:WhereClauseRef WhereClauseOID="WC.LB.LBTESTCD.LBORRES.UGT6HT"/>
             </ItemRef>
           <ItemRef ItemOID = "IT.LB.LBTESTCD.LBORRES.URATE"
             OrderNumber ="56"
             Mandatory = "No">
               <def:WhereClauseRef WhereClauseOID="WC.LB.LBTESTCD.LBORRES.URATE"/>
             </ItemRef>
           <ItemRef ItemOID = "IT.LB.LBTESTCD.LBORRES.UREAN"
             OrderNumber ="57"
             Mandatory = "No">
               <def:WhereClauseRef WhereClauseOID="WC.LB.LBTESTCD.LBORRES.UREAN"/>
             </ItemRef>
           <ItemRef ItemOID = "IT.LB.LBCAT.LBORRES.URINALYSISandLBTESTCDEQBILI"
             OrderNumber ="6"
             Mandatory = "No">
               <def:WhereClauseRef WhereClauseOID="WC.LB.LBCAT.LBORRES.URINALYSISandLBTESTCDEQBILI"/>
             </ItemRef>
           <ItemRef ItemOID = "IT.LB.LBCAT.LBORRES.URINALYSISandLBTESTCDEQGLUC"
             OrderNumber ="7"
             Mandatory = "No">
               <def:WhereClauseRef WhereClauseOID="WC.LB.LBCAT.LBORRES.URINALYSISandLBTESTCDEQGLUC"/>
             </ItemRef>
           <ItemRef ItemOID = "IT.LB.LBCAT.LBORRES.URINALYSISandLBTESTCDEQPROT"
             OrderNumber ="8"
             Mandatory = "No">
               <def:WhereClauseRef WhereClauseOID="WC.LB.LBCAT.LBORRES.URINALYSISandLBTESTCDEQPROT"/>
             </ItemRef>
           <ItemRef ItemOID = "IT.LB.LBCAT.LBORRES.URINALYSISandLBTESTCDEQRBC"
             OrderNumber ="9"
             Mandatory = "No">
               <def:WhereClauseRef WhereClauseOID="WC.LB.LBCAT.LBORRES.URINALYSISandLBTESTCDEQRBC"/>
             </ItemRef>
           <ItemRef ItemOID = "IT.LB.LBCAT.LBORRES.URINALYSISandLBTESTCDEQWBC"
             OrderNumber ="10"
             Mandatory = "No">
               <def:WhereClauseRef WhereClauseOID="WC.LB.LBCAT.LBORRES.URINALYSISandLBTESTCDEQWBC"/>
             </ItemRef>
           <ItemRef ItemOID = "IT.LB.LBTESTCD.LBORRES.UROBIL"
             OrderNumber ="58"
             Mandatory = "No">
               <def:WhereClauseRef WhereClauseOID="WC.LB.LBTESTCD.LBORRES.UROBIL"/>
             </ItemRef>
         </def:ValueListDef>

         <!-- ** ValueListDef for: VL.PC.PCORRES ** -->
         <def:ValueListDef  OID = "VL.PC.PCORRES">

           <ItemRef ItemOID = "IT.PC.PCTESTCD.PCORRES.ONO4578"
             OrderNumber ="1"
             Mandatory = "No">
               <def:WhereClauseRef WhereClauseOID="WC.PC.PCTESTCD.PCORRES.ONO4578"/>
             </ItemRef>
         </def:ValueListDef>

        <!-- ** ValueListDef for: VL.PP.PPORRES ** -->
         <def:ValueListDef  OID = "VL.PP.PPORRES">

           <ItemRef ItemOID = "IT.PP.PPTESTCD.PPORRES.AUCIFO"
             OrderNumber ="1"
             Mandatory = "No">
               <def:WhereClauseRef WhereClauseOID="WC.PP.PPTESTCD.PPORRES.AUCIFO"/>
             </ItemRef>
			<ItemRef ItemOID = "IT.PP.PPTESTCD.PPORRES.AUCLST"
             OrderNumber ="2"
             Mandatory = "No">
               <def:WhereClauseRef WhereClauseOID="WC.PP.PPTESTCD.PPORRES.AUCLST"/>
             </ItemRef>
		   <ItemRef ItemOID = "IT.PP.PPTESTCD.PPORRES.AUCPEO"
             OrderNumber ="3"
             Mandatory = "No">
               <def:WhereClauseRef WhereClauseOID="WC.PP.PPTESTCD.PPORRES.AUCPEO"/>
             </ItemRef>
		   <ItemRef ItemOID = "IT.PP.PPTESTCD.PPORRES.CLFO"
             OrderNumber ="4"
             Mandatory = "No">
               <def:WhereClauseRef WhereClauseOID="WC.PP.PPTESTCD.PPORRES.CLFO"/>
             </ItemRef>
		   <ItemRef ItemOID = "IT.PP.PPTESTCD.PPORRES.CMAX"
             OrderNumber ="5"
             Mandatory = "No">
               <def:WhereClauseRef WhereClauseOID="WC.PP.PPTESTCD.PPORRES.CMAX"/>
             </ItemRef>
		   <ItemRef ItemOID = "IT.PP.PPTESTCD.PPORRES.LAMZ"
             OrderNumber ="6"
             Mandatory = "No">
               <def:WhereClauseRef WhereClauseOID="WC.PP.PPTESTCD.PPORRES.LAMZ"/>
             </ItemRef>
		   <ItemRef ItemOID = "IT.PP.PPTESTCD.PPORRES.LAMZHL"
             OrderNumber ="7"
             Mandatory = "No">
               <def:WhereClauseRef WhereClauseOID="WC.PP.PPTESTCD.PPORRES.LAMZHL"/>
             </ItemRef>
		   <ItemRef ItemOID = "IT.PP.PPTESTCD.PPORRES.MRTIVIFO"
             OrderNumber ="8"
             Mandatory = "No">
               <def:WhereClauseRef WhereClauseOID="WC.PP.PPTESTCD.PPORRES.MRTIVIFO"/>
             </ItemRef>
			<ItemRef ItemOID = "IT.PP.PPTESTCD.PPORRES.TMAX"
             OrderNumber ="9"
             Mandatory = "No">
               <def:WhereClauseRef WhereClauseOID="WC.PP.PPTESTCD.PPORRES.TMAX"/>
             </ItemRef>
         </def:ValueListDef>

       <!-- ** ValueListDef for: VL.VS.VSORRES ** -->
         <def:ValueListDef  OID = "VL.VS.VSORRES">

           <ItemRef ItemOID = "IT.VS.VSTESTCD.VSORRES.BMI"
             OrderNumber ="1"
             Mandatory = "No">
               <def:WhereClauseRef WhereClauseOID="WC.VS.VSTESTCD.VSORRES.BMI"/>
             </ItemRef>
			<ItemRef ItemOID = "IT.VS.VSTESTCD.VSORRES.DIABP"
             OrderNumber ="2"
             Mandatory = "No">
               <def:WhereClauseRef WhereClauseOID="WC.VS.VSTESTCD.VSORRES.DIABP"/>
             </ItemRef>
		   <ItemRef ItemOID = "IT.VS.VSTESTCD.VSORRES.HEIGHT"
             OrderNumber ="3"
             Mandatory = "No">
               <def:WhereClauseRef WhereClauseOID="WC.VS.VSTESTCD.VSORRES.HEIGHT"/>
             </ItemRef>
		   <ItemRef ItemOID = "IT.VS.VSTESTCD.VSORRES.PULSE"
             OrderNumber ="4"
             Mandatory = "No">
               <def:WhereClauseRef WhereClauseOID="WC.VS.VSTESTCD.VSORRES.PULSE"/>
             </ItemRef>
		   <ItemRef ItemOID = "IT.VS.VSTESTCD.VSORRES.SYSBP"
             OrderNumber ="5"
             Mandatory = "No">
               <def:WhereClauseRef WhereClauseOID="WC.VS.VSTESTCD.VSORRES.SYSBP"/>
             </ItemRef>
		   <ItemRef ItemOID = "IT.VS.VSTESTCD.VSORRES.TEMP"
             OrderNumber ="6"
             Mandatory = "No">
               <def:WhereClauseRef WhereClauseOID="WC.VS.VSTESTCD.VSORRES.TEMP"/>
             </ItemRef>
		   <ItemRef ItemOID = "IT.VS.VSTESTCD.VSORRES.WEIGHT"
             OrderNumber ="7"
             Mandatory = "No">
               <def:WhereClauseRef WhereClauseOID="WC.VS.VSTESTCD.VSORRES.WEIGHT"/>
             </ItemRef>
		   
         </def:ValueListDef>


         <!-- ** ValueListDef for: VL.SUPPAE.QVAL ** -->
         <def:ValueListDef  OID = "VL.SUPPAE.QVAL">

           <ItemRef ItemOID = "IT.SUPPAE.QNAM.QVAL.AEPERIOD"
             OrderNumber ="1"
             Mandatory = "No">
               <def:WhereClauseRef WhereClauseOID="WC.SUPPAE.QNAM.QVAL.AEPERIOD"/>
             </ItemRef>
           <ItemRef ItemOID = "IT.SUPPAE.QNAM.QVAL.AETRTEM"
             OrderNumber ="2"
             Mandatory = "No"
             MethodOID="MT.VL.SUPPAE.QVAL.AETRTEM">
               <def:WhereClauseRef WhereClauseOID="WC.SUPPAE.QNAM.QVAL.AETRTEM"/>
             </ItemRef>
         </def:ValueListDef>

         <!-- ** ValueListDef for: VL.SUPPCM.QVAL ** -->
         <def:ValueListDef  OID = "VL.SUPPCM.QVAL">

           <ItemRef ItemOID = "IT.SUPPCM.QNAM.QVAL.CMAENO1"
             OrderNumber ="1"
             Mandatory = "No">
               <def:WhereClauseRef WhereClauseOID="WC.SUPPCM.QNAM.QVAL.CMAENO1"/>
             </ItemRef>
           <ItemRef ItemOID = "IT.SUPPCM.QNAM.QVAL.CMDOSUOT"
             OrderNumber ="2"
             Mandatory = "No">
               <def:WhereClauseRef WhereClauseOID="WC.SUPPCM.QNAM.QVAL.CMDOSUOT"/>
             </ItemRef>
           <ItemRef ItemOID = "IT.SUPPCM.QNAM.QVAL.CMINDCO"
             OrderNumber ="3"
             Mandatory = "No">
               <def:WhereClauseRef WhereClauseOID="WC.SUPPCM.QNAM.QVAL.CMINDCO"/>
             </ItemRef>
           <ItemRef ItemOID = "IT.SUPPCM.QNAM.QVAL.PNCD"
             OrderNumber ="4"
             Mandatory = "No">
               <def:WhereClauseRef WhereClauseOID="WC.SUPPCM.QNAM.QVAL.PNCD"/>
             </ItemRef>
         </def:ValueListDef>

         <!-- ** ValueListDef for: VL.SUPPEC.QVAL ** -->
         <def:ValueListDef  OID = "VL.SUPPEC.QVAL">

           <ItemRef ItemOID = "IT.SUPPEC.QNAM.QVAL.DOSCOMP"
             OrderNumber ="1"
             Mandatory = "No">
               <def:WhereClauseRef WhereClauseOID="WC.SUPPEC.QNAM.QVAL.DOSCOMP"/>
             </ItemRef>
         </def:ValueListDef>

         <!-- ** ValueListDef for: VL.SUPPEX.QVAL ** -->
         <def:ValueListDef  OID = "VL.SUPPEX.QVAL">

           <ItemRef ItemOID = "IT.SUPPEX.QNAM.QVAL.DOSCOMP"
             OrderNumber ="1"
             Mandatory = "No">
               <def:WhereClauseRef WhereClauseOID="WC.SUPPEX.QNAM.QVAL.DOSCOMP"/>
             </ItemRef>
         </def:ValueListDef>

         <!-- ** ValueListDef for: VL.SUPPIE.QVAL ** -->
         <def:ValueListDef  OID = "VL.SUPPIE.QVAL">

           <ItemRef ItemOID = "IT.SUPPIE.QNAM.QVAL.PROTVRSN"
             OrderNumber ="1"
             Mandatory = "No">
               <def:WhereClauseRef WhereClauseOID="WC.SUPPIE.QNAM.QVAL.PROTVRSN"/>
             </ItemRef>
         </def:ValueListDef>

         <!-- ** ValueListDef for: VL.SUPPLB.QVAL ** -->
         <def:ValueListDef  OID = "VL.SUPPLB.QVAL">

           <ItemRef ItemOID = "IT.SUPPLB.QNAM.QVAL.LBORU"
             OrderNumber ="1"
             Mandatory = "No">
               <def:WhereClauseRef WhereClauseOID="WC.SUPPLB.QNAM.QVAL.LBORU"/>
             </ItemRef>
         </def:ValueListDef>

         <!-- ** ValueListDef for: VL.SUPPPC.QVAL ** -->
         <def:ValueListDef  OID = "VL.SUPPPC.QVAL">

           <ItemRef ItemOID = "IT.SUPPPC.QNAM.QVAL.PCORU"
             OrderNumber ="1"
             Mandatory = "No">
               <def:WhereClauseRef WhereClauseOID="WC.SUPPPC.QNAM.QVAL.PCORU"/>
             </ItemRef>
         </def:ValueListDef>

         <!-- ** ValueListDef for: VL.SUPPPR.QVAL ** -->
         <def:ValueListDef  OID = "VL.SUPPPR.QVAL">

           <ItemRef ItemOID = "IT.SUPPPR.QNAM.QVAL.PRAENO1"
             OrderNumber ="1"
             Mandatory = "No">
               <def:WhereClauseRef WhereClauseOID="WC.SUPPPR.QNAM.QVAL.PRAENO1"/>
             </ItemRef>
         </def:ValueListDef>

         <!-- ** ValueListDef for: VL.TS.TSVAL ** -->
         <def:ValueListDef  OID = "VL.TS.TSVAL">

           <ItemRef ItemOID = "IT.TS.TSPARMCD.TSVAL.ACTSUB"
             OrderNumber ="1"
             Mandatory = "No">
               <def:WhereClauseRef WhereClauseOID="WC.TS.TSPARMCD.TSVAL.ACTSUB"/>
             </ItemRef>
           <ItemRef ItemOID = "IT.TS.TSPARMCD.TSVAL.ADAPT"
             OrderNumber ="2"
             Mandatory = "No">
               <def:WhereClauseRef WhereClauseOID="WC.TS.TSPARMCD.TSVAL.ADAPT"/>
             </ItemRef>
           <ItemRef ItemOID = "IT.TS.TSPARMCD.TSVAL.ADDON"
             OrderNumber ="3"
             Mandatory = "No">
               <def:WhereClauseRef WhereClauseOID="WC.TS.TSPARMCD.TSVAL.ADDON"/>
             </ItemRef>
           <ItemRef ItemOID = "IT.TS.TSPARMCD.TSVAL.AGEMAX"
             OrderNumber ="4"
             Mandatory = "No">
               <def:WhereClauseRef WhereClauseOID="WC.TS.TSPARMCD.TSVAL.AGEMAX"/>
             </ItemRef>
           <ItemRef ItemOID = "IT.TS.TSPARMCD.TSVAL.AGEMIN"
             OrderNumber ="5"
             Mandatory = "No">
               <def:WhereClauseRef WhereClauseOID="WC.TS.TSPARMCD.TSVAL.AGEMIN"/>
             </ItemRef>
           <ItemRef ItemOID = "IT.TS.TSPARMCD.TSVAL.CURTRT"
             OrderNumber ="6"
             Mandatory = "No">
               <def:WhereClauseRef WhereClauseOID="WC.TS.TSPARMCD.TSVAL.CURTRT"/>
             </ItemRef>
           <ItemRef ItemOID = "IT.TS.TSPARMCD.TSVAL.DCUTDESC"
             OrderNumber ="7"
             Mandatory = "No">
               <def:WhereClauseRef WhereClauseOID="WC.TS.TSPARMCD.TSVAL.DCUTDESC"/>
             </ItemRef>
           <ItemRef ItemOID = "IT.TS.TSPARMCD.TSVAL.DCUTDTC"
             OrderNumber ="8"
             Mandatory = "No">
               <def:WhereClauseRef WhereClauseOID="WC.TS.TSPARMCD.TSVAL.DCUTDTC"/>
             </ItemRef>
           <ItemRef ItemOID = "IT.TS.TSPARMCD.TSVAL.FCNTRY"
             OrderNumber ="9"
             Mandatory = "No">
               <def:WhereClauseRef WhereClauseOID="WC.TS.TSPARMCD.TSVAL.FCNTRY"/>
             </ItemRef>
           <ItemRef ItemOID = "IT.TS.TSPARMCD.TSVAL.HLTSUBJI"
             OrderNumber ="10"
             Mandatory = "No">
               <def:WhereClauseRef WhereClauseOID="WC.TS.TSPARMCD.TSVAL.HLTSUBJI"/>
             </ItemRef>
           <ItemRef ItemOID = "IT.TS.TSPARMCD.TSVAL.INDIC"
             OrderNumber ="11"
             Mandatory = "No">
               <def:WhereClauseRef WhereClauseOID="WC.TS.TSPARMCD.TSVAL.INDIC"/>
             </ItemRef>
           <ItemRef ItemOID = "IT.TS.TSPARMCD.TSVAL.INTMODEL"
             OrderNumber ="12"
             Mandatory = "No">
               <def:WhereClauseRef WhereClauseOID="WC.TS.TSPARMCD.TSVAL.INTMODEL"/>
             </ItemRef>
           <ItemRef ItemOID = "IT.TS.TSPARMCD.TSVAL.INTTYPE"
             OrderNumber ="13"
             Mandatory = "No">
               <def:WhereClauseRef WhereClauseOID="WC.TS.TSPARMCD.TSVAL.INTTYPE"/>
             </ItemRef>
           <ItemRef ItemOID = "IT.TS.TSPARMCD.TSVAL.LENGTH"
             OrderNumber ="14"
             Mandatory = "No">
               <def:WhereClauseRef WhereClauseOID="WC.TS.TSPARMCD.TSVAL.LENGTH"/>
             </ItemRef>
           <ItemRef ItemOID = "IT.TS.TSPARMCD.TSVAL.NARMS"
             OrderNumber ="15"
             Mandatory = "No">
               <def:WhereClauseRef WhereClauseOID="WC.TS.TSPARMCD.TSVAL.NARMS"/>
             </ItemRef>
           <ItemRef ItemOID = "IT.TS.TSPARMCD.TSVAL.OBJPRIM"
             OrderNumber ="16"
             Mandatory = "No">
               <def:WhereClauseRef WhereClauseOID="WC.TS.TSPARMCD.TSVAL.OBJPRIM"/>
             </ItemRef>
           <ItemRef ItemOID = "IT.TS.TSPARMCD.TSVAL.OBJSEC"
             OrderNumber ="17"
             Mandatory = "No">
               <def:WhereClauseRef WhereClauseOID="WC.TS.TSPARMCD.TSVAL.OBJSEC"/>
             </ItemRef>
           <ItemRef ItemOID = "IT.TS.TSPARMCD.TSVAL.OUTMSPRI"
             OrderNumber ="18"
             Mandatory = "No">
               <def:WhereClauseRef WhereClauseOID="WC.TS.TSPARMCD.TSVAL.OUTMSPRI"/>
             </ItemRef>
           <ItemRef ItemOID = "IT.TS.TSPARMCD.TSVAL.OUTMSSEC"
             OrderNumber ="19"
             Mandatory = "No">
               <def:WhereClauseRef WhereClauseOID="WC.TS.TSPARMCD.TSVAL.OUTMSSEC"/>
             </ItemRef>
           <ItemRef ItemOID = "IT.TS.TSPARMCD.TSVAL.PCLAS"
             OrderNumber ="20"
             Mandatory = "No">
               <def:WhereClauseRef WhereClauseOID="WC.TS.TSPARMCD.TSVAL.PCLAS"/>
             </ItemRef>
           <ItemRef ItemOID = "IT.TS.TSPARMCD.TSVAL.PLANSUB"
             OrderNumber ="21"
             Mandatory = "No">
               <def:WhereClauseRef WhereClauseOID="WC.TS.TSPARMCD.TSVAL.PLANSUB"/>
             </ItemRef>
           <ItemRef ItemOID = "IT.TS.TSPARMCD.TSVAL.RANDOM"
             OrderNumber ="22"
             Mandatory = "No">
               <def:WhereClauseRef WhereClauseOID="WC.TS.TSPARMCD.TSVAL.RANDOM"/>
             </ItemRef>
           <ItemRef ItemOID = "IT.TS.TSPARMCD.TSVAL.REGID"
             OrderNumber ="23"
             Mandatory = "No">
               <def:WhereClauseRef WhereClauseOID="WC.TS.TSPARMCD.TSVAL.REGID"/>
             </ItemRef>
           <ItemRef ItemOID = "IT.TS.TSPARMCD.TSVAL.SENDTC"
             OrderNumber ="24"
             Mandatory = "No">
               <def:WhereClauseRef WhereClauseOID="WC.TS.TSPARMCD.TSVAL.SENDTC"/>
             </ItemRef>
           <ItemRef ItemOID = "IT.TS.TSPARMCD.TSVAL.SEXPOP"
             OrderNumber ="25"
             Mandatory = "No">
               <def:WhereClauseRef WhereClauseOID="WC.TS.TSPARMCD.TSVAL.SEXPOP"/>
             </ItemRef>
           <ItemRef ItemOID = "IT.TS.TSPARMCD.TSVAL.SPONSOR"
             OrderNumber ="26"
             Mandatory = "No">
               <def:WhereClauseRef WhereClauseOID="WC.TS.TSPARMCD.TSVAL.SPONSOR"/>
             </ItemRef>
           <ItemRef ItemOID = "IT.TS.TSPARMCD.TSVAL.SSTDTC"
             OrderNumber ="27"
             Mandatory = "No">
               <def:WhereClauseRef WhereClauseOID="WC.TS.TSPARMCD.TSVAL.SSTDTC"/>
             </ItemRef>
           <ItemRef ItemOID = "IT.TS.TSPARMCD.TSVAL.STOPRULE"
             OrderNumber ="28"
             Mandatory = "No">
               <def:WhereClauseRef WhereClauseOID="WC.TS.TSPARMCD.TSVAL.STOPRULE"/>
             </ItemRef>
           <ItemRef ItemOID = "IT.TS.TSPARMCD.TSVAL.STRATFCT"
             OrderNumber ="29"
             Mandatory = "No">
               <def:WhereClauseRef WhereClauseOID="WC.TS.TSPARMCD.TSVAL.STRATFCT"/>
             </ItemRef>
           <ItemRef ItemOID = "IT.TS.TSPARMCD.TSVAL.STYPE"
             OrderNumber ="30"
             Mandatory = "No">
               <def:WhereClauseRef WhereClauseOID="WC.TS.TSPARMCD.TSVAL.STYPE"/>
             </ItemRef>
           <ItemRef ItemOID = "IT.TS.TSPARMCD.TSVAL.TBLIND"
             OrderNumber ="31"
             Mandatory = "No">
               <def:WhereClauseRef WhereClauseOID="WC.TS.TSPARMCD.TSVAL.TBLIND"/>
             </ItemRef>
           <ItemRef ItemOID = "IT.TS.TSPARMCD.TSVAL.TCNTRL"
             OrderNumber ="32"
             Mandatory = "No">
               <def:WhereClauseRef WhereClauseOID="WC.TS.TSPARMCD.TSVAL.TCNTRL"/>
             </ItemRef>
           <ItemRef ItemOID = "IT.TS.TSPARMCD.TSVAL.TDIGRP"
             OrderNumber ="33"
             Mandatory = "No">
               <def:WhereClauseRef WhereClauseOID="WC.TS.TSPARMCD.TSVAL.TDIGRP"/>
             </ItemRef>
           <ItemRef ItemOID = "IT.TS.TSPARMCD.TSVAL.TINDTP"
             OrderNumber ="34"
             Mandatory = "No">
               <def:WhereClauseRef WhereClauseOID="WC.TS.TSPARMCD.TSVAL.TINDTP"/>
             </ItemRef>
           <ItemRef ItemOID = "IT.TS.TSPARMCD.TSVAL.TITLE"
             OrderNumber ="35"
             Mandatory = "No">
               <def:WhereClauseRef WhereClauseOID="WC.TS.TSPARMCD.TSVAL.TITLE"/>
             </ItemRef>
           <ItemRef ItemOID = "IT.TS.TSPARMCD.TSVAL.TPHASE"
             OrderNumber ="36"
             Mandatory = "No">
               <def:WhereClauseRef WhereClauseOID="WC.TS.TSPARMCD.TSVAL.TPHASE"/>
             </ItemRef>
           <ItemRef ItemOID = "IT.TS.TSPARMCD.TSVAL.TRT"
             OrderNumber ="37"
             Mandatory = "No">
               <def:WhereClauseRef WhereClauseOID="WC.TS.TSPARMCD.TSVAL.TRT"/>
             </ItemRef>
           <ItemRef ItemOID = "IT.TS.TSPARMCD.TSVAL.TTYPE"
             OrderNumber ="38"
             Mandatory = "No">
               <def:WhereClauseRef WhereClauseOID="WC.TS.TSPARMCD.TSVAL.TTYPE"/>
             </ItemRef>
			
            <ItemRef ItemOID = "IT.TS.TSPARMCD.TSVAL.EXTTIND"
             OrderNumber ="39"
             Mandatory = "No">
               <def:WhereClauseRef WhereClauseOID="WC.TS.TSPARMCD.TSVAL.EXTTIND"/>
             </ItemRef>
             <ItemRef ItemOID = "IT.TS.TSPARMCD.TSVAL.NCOHORT"
             OrderNumber ="40"
             Mandatory = "No">
               <def:WhereClauseRef WhereClauseOID="WC.TS.TSPARMCD.TSVAL.NCOHORT"/>
             </ItemRef>
             <ItemRef ItemOID = "IT.TS.TSPARMCD.TSVAL.PDPSTIND"
             OrderNumber ="41"
             Mandatory = "No">
               <def:WhereClauseRef WhereClauseOID="WC.TS.TSPARMCD.TSVAL.PDPSTIND"/>
             </ItemRef>
             <ItemRef ItemOID = "IT.TS.TSPARMCD.TSVAL.PDSTIND"
             OrderNumber ="42"
             Mandatory = "No">
               <def:WhereClauseRef WhereClauseOID="WC.TS.TSPARMCD.TSVAL.PDSTIND"/>
             </ItemRef>
             <ItemRef ItemOID = "IT.TS.TSPARMCD.TSVAL.PIPIND"
             OrderNumber ="43"
             Mandatory = "No">
               <def:WhereClauseRef WhereClauseOID="WC.TS.TSPARMCD.TSVAL.PIPIND"/>
             </ItemRef>
             <ItemRef ItemOID = "IT.TS.TSPARMCD.TSVAL.RDIND"
             OrderNumber ="44"
             Mandatory = "No">
               <def:WhereClauseRef WhereClauseOID="WC.TS.TSPARMCD.TSVAL.RDIND"/>
             </ItemRef>
            <ItemRef ItemOID = "IT.TS.TSPARMCD.TSVAL.THERAREA"
             OrderNumber ="45"
             Mandatory = "No">
               <def:WhereClauseRef WhereClauseOID="WC.TS.TSPARMCD.TSVAL.THERAREA"/>
             </ItemRef>
              <ItemRef ItemOID = "IT.TS.TSPARMCD.TSVAL.SDTIGVER"
             OrderNumber ="46"
             Mandatory = "No">
               <def:WhereClauseRef WhereClauseOID="WC.TS.TSPARMCD.TSVAL.SDTIGVER"/>
             </ItemRef>			 
			 <ItemRef ItemOID = "IT.TS.TSPARMCD.TSVAL.SDTMVER"
             OrderNumber ="47"
             Mandatory = "No">
               <def:WhereClauseRef WhereClauseOID="WC.TS.TSPARMCD.TSVAL.SDTMVER"/>
             </ItemRef>
			 
			 
         </def:ValueListDef>

         <!-- **************************** -->
         <!--  ValueListDef Elements : END -->
         <!-- **************************** -->


         <!-- ******************************** -->
         <!--  WhereClauseDef Elements : START -->
         <!-- ******************************** -->

         <!-- ** WhereClauseDef for: WC.DS.DSSPID.DSDECOD.SUBSET1 ** -->
         <def:WhereClauseDef OID = "WC.DS.DSSPID.DSDECOD.SUBSET1">
           <RangeCheck SoftHard="Soft" def:ItemOID="IT.DS.DSSPID" Comparator="IN">
             <CheckValue>1</CheckValue>
             <CheckValue>2</CheckValue>
           </RangeCheck>
         </def:WhereClauseDef>
         <!-- ** WhereClauseDef for: WC.DS.DSSPID.DSDECOD.SUBSET2 ** -->
         <def:WhereClauseDef OID = "WC.DS.DSSPID.DSDECOD.SUBSET2">
           <RangeCheck SoftHard="Soft" def:ItemOID="IT.DS.DSSPID" Comparator="IN">
             <CheckValue>3</CheckValue>
             <CheckValue>4</CheckValue>
             <CheckValue>5</CheckValue>
             <CheckValue>6</CheckValue>
             <CheckValue>7</CheckValue>
           </RangeCheck>
         </def:WhereClauseDef>
         <!-- ** WhereClauseDef for: WC.DS.DSSPID.DSTERM.SUBSET3 ** -->
         <def:WhereClauseDef OID = "WC.DS.DSSPID.DSTERM.SUBSET3">
           <RangeCheck SoftHard="Soft" def:ItemOID="IT.DS.DSSPID" Comparator="IN">
             <CheckValue>1</CheckValue>
             <CheckValue>2</CheckValue>
           </RangeCheck>
         </def:WhereClauseDef>
         <!-- ** WhereClauseDef for: WC.DS.DSSPID.DSTERM.SUBSET4 ** -->
         <def:WhereClauseDef OID = "WC.DS.DSSPID.DSTERM.SUBSET4">
           <RangeCheck SoftHard="Soft" def:ItemOID="IT.DS.DSSPID" Comparator="IN">
             <CheckValue>3</CheckValue>
             <CheckValue>4</CheckValue>
             <CheckValue>5</CheckValue>
             <CheckValue>6</CheckValue>
             <CheckValue>7</CheckValue>
           </RangeCheck>
         </def:WhereClauseDef>
         <!-- ** WhereClauseDef for: WC.IE.IETESTCD.IEORRES.SUBSET1 ** -->
         <def:WhereClauseDef OID = "WC.IE.IETESTCD.IEORRES.SUBSET1">
           <RangeCheck SoftHard="Soft" def:ItemOID="IT.IE.IETESTCD" Comparator="IN">
             <CheckValue>EXCL01</CheckValue>
             <CheckValue>EXCL02</CheckValue>
           </RangeCheck>
         </def:WhereClauseDef>
		 
		 
         <!-- ** WhereClauseDef for: WC.EG.EGTESTCD.EGORRES.EGHRMN ** -->
         <def:WhereClauseDef OID = "WC.EG.EGTESTCD.EGORRES.EGHRMN">
           <RangeCheck SoftHard="Soft" def:ItemOID="IT.EG.EGTESTCD" Comparator="EQ">
             <CheckValue>EGHRMN</CheckValue>
           </RangeCheck>
         </def:WhereClauseDef>	
        <!-- ** WhereClauseDef for: WC.EG.EGTESTCD.EGORRES.INTP ** -->
         <def:WhereClauseDef OID = "WC.EG.EGTESTCD.EGORRES.INTP">
           <RangeCheck SoftHard="Soft" def:ItemOID="IT.EG.EGTESTCD" Comparator="EQ">
             <CheckValue>INTP</CheckValue>
           </RangeCheck>
         </def:WhereClauseDef>	
        <!-- ** WhereClauseDef for: WC.EG.EGTESTCD.EGORRES.PRAG ** -->
         <def:WhereClauseDef OID = "WC.EG.EGTESTCD.EGORRES.PRAG">
           <RangeCheck SoftHard="Soft" def:ItemOID="IT.EG.EGTESTCD" Comparator="EQ">
             <CheckValue>PRAG</CheckValue>
           </RangeCheck>
         </def:WhereClauseDef>	
        <!-- ** WhereClauseDef for: WC.EG.EGTESTCD.EGORRES.QRSAG ** -->
         <def:WhereClauseDef OID = "WC.EG.EGTESTCD.EGORRES.QRSAG">
           <RangeCheck SoftHard="Soft" def:ItemOID="IT.EG.EGTESTCD" Comparator="EQ">
             <CheckValue>QRSAG</CheckValue>
           </RangeCheck>
         </def:WhereClauseDef>	
        <!-- ** WhereClauseDef for: WC.EG.EGTESTCD.EGORRES.QTAG ** -->
         <def:WhereClauseDef OID = "WC.EG.EGTESTCD.EGORRES.QTAG">
           <RangeCheck SoftHard="Soft" def:ItemOID="IT.EG.EGTESTCD" Comparator="EQ">
             <CheckValue>QTAG</CheckValue>
           </RangeCheck>
         </def:WhereClauseDef>	
        <!-- ** WhereClauseDef for: WC.EG.EGTESTCD.EGORRES.QTCFAG ** -->
         <def:WhereClauseDef OID = "WC.EG.EGTESTCD.EGORRES.QTCFAG">
           <RangeCheck SoftHard="Soft" def:ItemOID="IT.EG.EGTESTCD" Comparator="EQ">
             <CheckValue>QTCFAG</CheckValue>
           </RangeCheck>
         </def:WhereClauseDef>	
        <!-- ** WhereClauseDef for: WC.EG.EGTESTCD.EGORRES.RRAG ** -->
         <def:WhereClauseDef OID = "WC.EG.EGTESTCD.EGORRES.RRAG">
           <RangeCheck SoftHard="Soft" def:ItemOID="IT.EG.EGTESTCD" Comparator="EQ">
             <CheckValue>RRAG</CheckValue>
           </RangeCheck>
         </def:WhereClauseDef>	
		 
		 
         <!-- ** WhereClauseDef for: WC.LB.LBTESTCD.LBORRES.ALB ** -->
         <def:WhereClauseDef OID = "WC.LB.LBTESTCD.LBORRES.ALB">
           <RangeCheck SoftHard="Soft" def:ItemOID="IT.LB.LBTESTCD" Comparator="EQ">
             <CheckValue>ALB</CheckValue>
           </RangeCheck>
         </def:WhereClauseDef>
         <!-- ** WhereClauseDef for: WC.LB.LBTESTCD.LBORRES.ALP ** -->
         <def:WhereClauseDef OID = "WC.LB.LBTESTCD.LBORRES.ALP">
           <RangeCheck SoftHard="Soft" def:ItemOID="IT.LB.LBTESTCD" Comparator="EQ">
             <CheckValue>ALP</CheckValue>
           </RangeCheck>
         </def:WhereClauseDef>
         <!-- ** WhereClauseDef for: WC.LB.LBTESTCD.LBORRES.ALT ** -->
         <def:WhereClauseDef OID = "WC.LB.LBTESTCD.LBORRES.ALT">
           <RangeCheck SoftHard="Soft" def:ItemOID="IT.LB.LBTESTCD" Comparator="EQ">
             <CheckValue>ALT</CheckValue>
           </RangeCheck>
         </def:WhereClauseDef>
         <!-- ** WhereClauseDef for: WC.LB.LBTESTCD.LBORRES.AMYLASE ** -->
         <def:WhereClauseDef OID = "WC.LB.LBTESTCD.LBORRES.AMYLASE">
           <RangeCheck SoftHard="Soft" def:ItemOID="IT.LB.LBTESTCD" Comparator="EQ">
             <CheckValue>AMYLASE</CheckValue>
           </RangeCheck>
         </def:WhereClauseDef>
         <!-- ** WhereClauseDef for: WC.LB.LBTESTCD.LBORRES.APTT ** -->
         <def:WhereClauseDef OID = "WC.LB.LBTESTCD.LBORRES.APTT">
           <RangeCheck SoftHard="Soft" def:ItemOID="IT.LB.LBTESTCD" Comparator="EQ">
             <CheckValue>APTT</CheckValue>
           </RangeCheck>
         </def:WhereClauseDef>
         <!-- ** WhereClauseDef for: WC.LB.LBTESTCD.LBORRES.AST ** -->
         <def:WhereClauseDef OID = "WC.LB.LBTESTCD.LBORRES.AST">
           <RangeCheck SoftHard="Soft" def:ItemOID="IT.LB.LBTESTCD" Comparator="EQ">
             <CheckValue>AST</CheckValue>
           </RangeCheck>
         </def:WhereClauseDef>
         <!-- ** WhereClauseDef for: WC.LB.LBTESTCD.LBORRES.BASOLE ** -->
         <def:WhereClauseDef OID = "WC.LB.LBTESTCD.LBORRES.BASOLE">
           <RangeCheck SoftHard="Soft" def:ItemOID="IT.LB.LBTESTCD" Comparator="EQ">
             <CheckValue>BASOLE</CheckValue>
           </RangeCheck>
         </def:WhereClauseDef>
         <!-- ** WhereClauseDef for: WC.LB.LBTESTCD.LBORRES.CA ** -->
         <def:WhereClauseDef OID = "WC.LB.LBTESTCD.LBORRES.CA">
           <RangeCheck SoftHard="Soft" def:ItemOID="IT.LB.LBTESTCD" Comparator="EQ">
             <CheckValue>CA</CheckValue>
           </RangeCheck>
         </def:WhereClauseDef>
         <!-- ** WhereClauseDef for: WC.LB.LBCAT.LBORRES.CHEMISTRYandLBTESTCDEQBILI ** -->
         <def:WhereClauseDef OID = "WC.LB.LBCAT.LBORRES.CHEMISTRYandLBTESTCDEQBILI">
           <RangeCheck SoftHard="Soft" def:ItemOID="IT.LB.LBCAT" Comparator="EQ">
             <CheckValue>CHEMISTRY</CheckValue>
           </RangeCheck>
           <RangeCheck SoftHard="Soft" def:ItemOID="IT.LB.LBTESTCD" Comparator="EQ">
             <CheckValue>BILI</CheckValue>
           </RangeCheck>
         </def:WhereClauseDef>
         <!-- ** WhereClauseDef for: WC.LB.LBCAT.LBORRES.CHEMISTRYandLBTESTCDEQGLUC ** -->
         <def:WhereClauseDef OID = "WC.LB.LBCAT.LBORRES.CHEMISTRYandLBTESTCDEQGLUC">
           <RangeCheck SoftHard="Soft" def:ItemOID="IT.LB.LBCAT" Comparator="EQ">
             <CheckValue>CHEMISTRY</CheckValue>
           </RangeCheck>
           <RangeCheck SoftHard="Soft" def:ItemOID="IT.LB.LBTESTCD" Comparator="EQ">
             <CheckValue>GLUC</CheckValue>
           </RangeCheck>
         </def:WhereClauseDef>
         <!-- ** WhereClauseDef for: WC.LB.LBCAT.LBORRES.CHEMISTRYandLBTESTCDEQPROT ** -->
         <def:WhereClauseDef OID = "WC.LB.LBCAT.LBORRES.CHEMISTRYandLBTESTCDEQPROT">
           <RangeCheck SoftHard="Soft" def:ItemOID="IT.LB.LBCAT" Comparator="EQ">
             <CheckValue>CHEMISTRY</CheckValue>
           </RangeCheck>
           <RangeCheck SoftHard="Soft" def:ItemOID="IT.LB.LBTESTCD" Comparator="EQ">
             <CheckValue>PROT</CheckValue>
           </RangeCheck>
         </def:WhereClauseDef>
         <!-- ** WhereClauseDef for: WC.LB.LBTESTCD.LBORRES.CHOL ** -->
         <def:WhereClauseDef OID = "WC.LB.LBTESTCD.LBORRES.CHOL">
           <RangeCheck SoftHard="Soft" def:ItemOID="IT.LB.LBTESTCD" Comparator="EQ">
             <CheckValue>CHOL</CheckValue>
           </RangeCheck>
         </def:WhereClauseDef>
         <!-- ** WhereClauseDef for: WC.LB.LBTESTCD.LBORRES.CK ** -->
         <def:WhereClauseDef OID = "WC.LB.LBTESTCD.LBORRES.CK">
           <RangeCheck SoftHard="Soft" def:ItemOID="IT.LB.LBTESTCD" Comparator="EQ">
             <CheckValue>CK</CheckValue>
           </RangeCheck>
         </def:WhereClauseDef>
         <!-- ** WhereClauseDef for: WC.LB.LBTESTCD.LBORRES.CL ** -->
         <def:WhereClauseDef OID = "WC.LB.LBTESTCD.LBORRES.CL">
           <RangeCheck SoftHard="Soft" def:ItemOID="IT.LB.LBTESTCD" Comparator="EQ">
             <CheckValue>CL</CheckValue>
           </RangeCheck>
         </def:WhereClauseDef>
         <!-- ** WhereClauseDef for: WC.LB.LBTESTCD.LBORRES.CREAT ** -->
         <def:WhereClauseDef OID = "WC.LB.LBTESTCD.LBORRES.CREAT">
           <RangeCheck SoftHard="Soft" def:ItemOID="IT.LB.LBTESTCD" Comparator="EQ">
             <CheckValue>CREAT</CheckValue>
           </RangeCheck>
         </def:WhereClauseDef>
         <!-- ** WhereClauseDef for: WC.LB.LBTESTCD.LBORRES.CRP ** -->
         <def:WhereClauseDef OID = "WC.LB.LBTESTCD.LBORRES.CRP">
           <RangeCheck SoftHard="Soft" def:ItemOID="IT.LB.LBTESTCD" Comparator="EQ">
             <CheckValue>CRP</CheckValue>
           </RangeCheck>
         </def:WhereClauseDef>
         <!-- ** WhereClauseDef for: WC.LB.LBTESTCD.LBORRES.DRUGSCR ** -->
         <def:WhereClauseDef OID = "WC.LB.LBTESTCD.LBORRES.DRUGSCR">
           <RangeCheck SoftHard="Soft" def:ItemOID="IT.LB.LBTESTCD" Comparator="EQ">
             <CheckValue>DRUGSCR</CheckValue>
           </RangeCheck>
         </def:WhereClauseDef>
         <!-- ** WhereClauseDef for: WC.LB.LBTESTCD.LBORRES.EOSLE ** -->
         <def:WhereClauseDef OID = "WC.LB.LBTESTCD.LBORRES.EOSLE">
           <RangeCheck SoftHard="Soft" def:ItemOID="IT.LB.LBTESTCD" Comparator="EQ">
             <CheckValue>EOSLE</CheckValue>
           </RangeCheck>
         </def:WhereClauseDef>
         <!-- ** WhereClauseDef for: WC.LB.LBTESTCD.LBORRES.EPISQCE ** -->
         <def:WhereClauseDef OID = "WC.LB.LBTESTCD.LBORRES.EPISQCE">
           <RangeCheck SoftHard="Soft" def:ItemOID="IT.LB.LBTESTCD" Comparator="EQ">
             <CheckValue>EPISQCE</CheckValue>
           </RangeCheck>
         </def:WhereClauseDef>
         <!-- ** WhereClauseDef for: WC.LB.LBTESTCD.LBORRES.GGT ** -->
         <def:WhereClauseDef OID = "WC.LB.LBTESTCD.LBORRES.GGT">
           <RangeCheck SoftHard="Soft" def:ItemOID="IT.LB.LBTESTCD" Comparator="EQ">
             <CheckValue>GGT</CheckValue>
           </RangeCheck>
         </def:WhereClauseDef>
         <!-- ** WhereClauseDef for: WC.LB.LBTESTCD.LBORRES.HCT ** -->
         <def:WhereClauseDef OID = "WC.LB.LBTESTCD.LBORRES.HCT">
           <RangeCheck SoftHard="Soft" def:ItemOID="IT.LB.LBTESTCD" Comparator="EQ">
             <CheckValue>HCT</CheckValue>
           </RangeCheck>
         </def:WhereClauseDef>
         <!-- ** WhereClauseDef for: WC.LB.LBCAT.LBORRES.HEMATOLOGYandLBTESTCDEQRBC ** -->
         <def:WhereClauseDef OID = "WC.LB.LBCAT.LBORRES.HEMATOLOGYandLBTESTCDEQRBC">
           <RangeCheck SoftHard="Soft" def:ItemOID="IT.LB.LBCAT" Comparator="EQ">
             <CheckValue>HEMATOLOGY</CheckValue>
           </RangeCheck>
           <RangeCheck SoftHard="Soft" def:ItemOID="IT.LB.LBTESTCD" Comparator="EQ">
             <CheckValue>RBC</CheckValue>
           </RangeCheck>
         </def:WhereClauseDef>
         <!-- ** WhereClauseDef for: WC.LB.LBCAT.LBORRES.HEMATOLOGYandLBTESTCDEQWBC ** -->
         <def:WhereClauseDef OID = "WC.LB.LBCAT.LBORRES.HEMATOLOGYandLBTESTCDEQWBC">
           <RangeCheck SoftHard="Soft" def:ItemOID="IT.LB.LBCAT" Comparator="EQ">
             <CheckValue>HEMATOLOGY</CheckValue>
           </RangeCheck>
           <RangeCheck SoftHard="Soft" def:ItemOID="IT.LB.LBTESTCD" Comparator="EQ">
             <CheckValue>WBC</CheckValue>
           </RangeCheck>
         </def:WhereClauseDef>
         <!-- ** WhereClauseDef for: WC.LB.LBTESTCD.LBORRES.HGB ** -->
         <def:WhereClauseDef OID = "WC.LB.LBTESTCD.LBORRES.HGB">
           <RangeCheck SoftHard="Soft" def:ItemOID="IT.LB.LBTESTCD" Comparator="EQ">
             <CheckValue>HGB</CheckValue>
           </RangeCheck>
         </def:WhereClauseDef>
         <!-- ** WhereClauseDef for: WC.LB.LBTESTCD.LBORRES.INR ** -->
         <def:WhereClauseDef OID = "WC.LB.LBTESTCD.LBORRES.INR">
           <RangeCheck SoftHard="Soft" def:ItemOID="IT.LB.LBTESTCD" Comparator="EQ">
             <CheckValue>INR</CheckValue>
           </RangeCheck>
         </def:WhereClauseDef>
         <!-- ** WhereClauseDef for: WC.LB.LBTESTCD.LBORRES.K ** -->
         <def:WhereClauseDef OID = "WC.LB.LBTESTCD.LBORRES.K">
           <RangeCheck SoftHard="Soft" def:ItemOID="IT.LB.LBTESTCD" Comparator="EQ">
             <CheckValue>K</CheckValue>
           </RangeCheck>
         </def:WhereClauseDef>
         <!-- ** WhereClauseDef for: WC.LB.LBTESTCD.LBORRES.KETONES ** -->
         <def:WhereClauseDef OID = "WC.LB.LBTESTCD.LBORRES.KETONES">
           <RangeCheck SoftHard="Soft" def:ItemOID="IT.LB.LBTESTCD" Comparator="EQ">
             <CheckValue>KETONES</CheckValue>
           </RangeCheck>
         </def:WhereClauseDef>
         <!-- ** WhereClauseDef for: WC.LB.LBTESTCD.LBORRES.LBALL ** -->
         <def:WhereClauseDef OID = "WC.LB.LBTESTCD.LBORRES.LBALL">
           <RangeCheck SoftHard="Soft" def:ItemOID="IT.LB.LBTESTCD" Comparator="EQ">
             <CheckValue>LBALL</CheckValue>
           </RangeCheck>
         </def:WhereClauseDef>
         <!-- ** WhereClauseDef for: WC.LB.LBTESTCD.LBORRES.LDH ** -->
         <def:WhereClauseDef OID = "WC.LB.LBTESTCD.LBORRES.LDH">
           <RangeCheck SoftHard="Soft" def:ItemOID="IT.LB.LBTESTCD" Comparator="EQ">
             <CheckValue>LDH</CheckValue>
           </RangeCheck>
         </def:WhereClauseDef>
         <!-- ** WhereClauseDef for: WC.LB.LBTESTCD.LBORRES.LYMLE ** -->
         <def:WhereClauseDef OID = "WC.LB.LBTESTCD.LBORRES.LYMLE">
           <RangeCheck SoftHard="Soft" def:ItemOID="IT.LB.LBTESTCD" Comparator="EQ">
             <CheckValue>LYMLE</CheckValue>
           </RangeCheck>
         </def:WhereClauseDef>
         <!-- ** WhereClauseDef for: WC.LB.LBTESTCD.LBORRES.MCH ** -->
         <def:WhereClauseDef OID = "WC.LB.LBTESTCD.LBORRES.MCH">
           <RangeCheck SoftHard="Soft" def:ItemOID="IT.LB.LBTESTCD" Comparator="EQ">
             <CheckValue>MCH</CheckValue>
           </RangeCheck>
         </def:WhereClauseDef>
         <!-- ** WhereClauseDef for: WC.LB.LBTESTCD.LBORRES.MCHC ** -->
         <def:WhereClauseDef OID = "WC.LB.LBTESTCD.LBORRES.MCHC">
           <RangeCheck SoftHard="Soft" def:ItemOID="IT.LB.LBTESTCD" Comparator="EQ">
             <CheckValue>MCHC</CheckValue>
           </RangeCheck>
         </def:WhereClauseDef>
         <!-- ** WhereClauseDef for: WC.LB.LBTESTCD.LBORRES.MCV ** -->
         <def:WhereClauseDef OID = "WC.LB.LBTESTCD.LBORRES.MCV">
           <RangeCheck SoftHard="Soft" def:ItemOID="IT.LB.LBTESTCD" Comparator="EQ">
             <CheckValue>MCV</CheckValue>
           </RangeCheck>
         </def:WhereClauseDef>
         <!-- ** WhereClauseDef for: WC.LB.LBTESTCD.LBORRES.MG ** -->
         <def:WhereClauseDef OID = "WC.LB.LBTESTCD.LBORRES.MG">
           <RangeCheck SoftHard="Soft" def:ItemOID="IT.LB.LBTESTCD" Comparator="EQ">
             <CheckValue>MG</CheckValue>
           </RangeCheck>
         </def:WhereClauseDef>
         <!-- ** WhereClauseDef for: WC.LB.LBTESTCD.LBORRES.MONOLE ** -->
         <def:WhereClauseDef OID = "WC.LB.LBTESTCD.LBORRES.MONOLE">
           <RangeCheck SoftHard="Soft" def:ItemOID="IT.LB.LBTESTCD" Comparator="EQ">
             <CheckValue>MONOLE</CheckValue>
           </RangeCheck>
         </def:WhereClauseDef>
         <!-- ** WhereClauseDef for: WC.LB.LBTESTCD.LBORRES.NEUTLE ** -->
         <def:WhereClauseDef OID = "WC.LB.LBTESTCD.LBORRES.NEUTLE">
           <RangeCheck SoftHard="Soft" def:ItemOID="IT.LB.LBTESTCD" Comparator="EQ">
             <CheckValue>NEUTLE</CheckValue>
           </RangeCheck>
         </def:WhereClauseDef>
         <!-- ** WhereClauseDef for: WC.LB.LBTESTCD.LBORRES.OCCBLD ** -->
         <def:WhereClauseDef OID = "WC.LB.LBTESTCD.LBORRES.OCCBLD">
           <RangeCheck SoftHard="Soft" def:ItemOID="IT.LB.LBTESTCD" Comparator="EQ">
             <CheckValue>OCCBLD</CheckValue>
           </RangeCheck>
         </def:WhereClauseDef>
         <!-- ** WhereClauseDef for: WC.LB.LBTESTCD.LBORRES.PH ** -->
         <def:WhereClauseDef OID = "WC.LB.LBTESTCD.LBORRES.PH">
           <RangeCheck SoftHard="Soft" def:ItemOID="IT.LB.LBTESTCD" Comparator="EQ">
             <CheckValue>PH</CheckValue>
           </RangeCheck>
         </def:WhereClauseDef>
         <!-- ** WhereClauseDef for: WC.LB.LBTESTCD.LBORRES.PHOS ** -->
         <def:WhereClauseDef OID = "WC.LB.LBTESTCD.LBORRES.PHOS">
           <RangeCheck SoftHard="Soft" def:ItemOID="IT.LB.LBTESTCD" Comparator="EQ">
             <CheckValue>PHOS</CheckValue>
           </RangeCheck>
         </def:WhereClauseDef>
         <!-- ** WhereClauseDef for: WC.LB.LBTESTCD.LBORRES.PLAT ** -->
         <def:WhereClauseDef OID = "WC.LB.LBTESTCD.LBORRES.PLAT">
           <RangeCheck SoftHard="Soft" def:ItemOID="IT.LB.LBTESTCD" Comparator="EQ">
             <CheckValue>PLAT</CheckValue>
           </RangeCheck>
         </def:WhereClauseDef>
         <!-- ** WhereClauseDef for: WC.LB.LBTESTCD.LBORRES.SARSCOV2 ** -->
         <def:WhereClauseDef OID = "WC.LB.LBTESTCD.LBORRES.SARSCOV2">
           <RangeCheck SoftHard="Soft" def:ItemOID="IT.LB.LBTESTCD" Comparator="EQ">
             <CheckValue>SARSCOV2</CheckValue>
           </RangeCheck>
         </def:WhereClauseDef>
         <!-- ** WhereClauseDef for: WC.LB.LBTESTCD.LBORRES.SEDEXAM ** -->
         <def:WhereClauseDef OID = "WC.LB.LBTESTCD.LBORRES.SEDEXAM">
           <RangeCheck SoftHard="Soft" def:ItemOID="IT.LB.LBTESTCD" Comparator="EQ">
             <CheckValue>SEDEXAM</CheckValue>
           </RangeCheck>
         </def:WhereClauseDef>
         <!-- ** WhereClauseDef for: WC.LB.LBTESTCD.LBORRES.SODIUM ** -->
         <def:WhereClauseDef OID = "WC.LB.LBTESTCD.LBORRES.SODIUM">
           <RangeCheck SoftHard="Soft" def:ItemOID="IT.LB.LBTESTCD" Comparator="EQ">
             <CheckValue>SODIUM</CheckValue>
           </RangeCheck>
         </def:WhereClauseDef>
         <!-- ** WhereClauseDef for: WC.LB.LBTESTCD.LBORRES.SPGRAV ** -->
         <def:WhereClauseDef OID = "WC.LB.LBTESTCD.LBORRES.SPGRAV">
           <RangeCheck SoftHard="Soft" def:ItemOID="IT.LB.LBTESTCD" Comparator="EQ">
             <CheckValue>SPGRAV</CheckValue>
           </RangeCheck>
         </def:WhereClauseDef>
         <!-- ** WhereClauseDef for: WC.LB.LBTESTCD.LBORRES.TRIG ** -->
         <def:WhereClauseDef OID = "WC.LB.LBTESTCD.LBORRES.TRIG">
           <RangeCheck SoftHard="Soft" def:ItemOID="IT.LB.LBTESTCD" Comparator="EQ">
             <CheckValue>TRIG</CheckValue>
           </RangeCheck>
         </def:WhereClauseDef>
         <!-- ** WhereClauseDef for: WC.LB.LBTESTCD.LBORRES.UGT1A1 ** -->
         <def:WhereClauseDef OID = "WC.LB.LBTESTCD.LBORRES.UGT1A1">
           <RangeCheck SoftHard="Soft" def:ItemOID="IT.LB.LBTESTCD" Comparator="EQ">
             <CheckValue>UGT1A1</CheckValue>
           </RangeCheck>
         </def:WhereClauseDef>
         <!-- ** WhereClauseDef for: WC.LB.LBTESTCD.LBORRES.UGT28HO ** -->
         <def:WhereClauseDef OID = "WC.LB.LBTESTCD.LBORRES.UGT28HO">
           <RangeCheck SoftHard="Soft" def:ItemOID="IT.LB.LBTESTCD" Comparator="EQ">
             <CheckValue>UGT28HO</CheckValue>
           </RangeCheck>
         </def:WhereClauseDef>
         <!-- ** WhereClauseDef for: WC.LB.LBTESTCD.LBORRES.UGT28HT ** -->
         <def:WhereClauseDef OID = "WC.LB.LBTESTCD.LBORRES.UGT28HT">
           <RangeCheck SoftHard="Soft" def:ItemOID="IT.LB.LBTESTCD" Comparator="EQ">
             <CheckValue>UGT28HT</CheckValue>
           </RangeCheck>
         </def:WhereClauseDef>
         <!-- ** WhereClauseDef for: WC.LB.LBTESTCD.LBORRES.UGT6HO ** -->
         <def:WhereClauseDef OID = "WC.LB.LBTESTCD.LBORRES.UGT6HO">
           <RangeCheck SoftHard="Soft" def:ItemOID="IT.LB.LBTESTCD" Comparator="EQ">
             <CheckValue>UGT6HO</CheckValue>
           </RangeCheck>
         </def:WhereClauseDef>
         <!-- ** WhereClauseDef for: WC.LB.LBTESTCD.LBORRES.UGT6HT ** -->
         <def:WhereClauseDef OID = "WC.LB.LBTESTCD.LBORRES.UGT6HT">
           <RangeCheck SoftHard="Soft" def:ItemOID="IT.LB.LBTESTCD" Comparator="EQ">
             <CheckValue>UGT6HT</CheckValue>
           </RangeCheck>
         </def:WhereClauseDef>
         <!-- ** WhereClauseDef for: WC.LB.LBTESTCD.LBORRES.URATE ** -->
         <def:WhereClauseDef OID = "WC.LB.LBTESTCD.LBORRES.URATE">
           <RangeCheck SoftHard="Soft" def:ItemOID="IT.LB.LBTESTCD" Comparator="EQ">
             <CheckValue>URATE</CheckValue>
           </RangeCheck>
         </def:WhereClauseDef>
         <!-- ** WhereClauseDef for: WC.LB.LBTESTCD.LBORRES.UREAN ** -->
         <def:WhereClauseDef OID = "WC.LB.LBTESTCD.LBORRES.UREAN">
           <RangeCheck SoftHard="Soft" def:ItemOID="IT.LB.LBTESTCD" Comparator="EQ">
             <CheckValue>UREAN</CheckValue>
           </RangeCheck>
         </def:WhereClauseDef>
         <!-- ** WhereClauseDef for: WC.LB.LBCAT.LBORRES.URINALYSISandLBTESTCDEQBILI ** -->
         <def:WhereClauseDef OID = "WC.LB.LBCAT.LBORRES.URINALYSISandLBTESTCDEQBILI">
           <RangeCheck SoftHard="Soft" def:ItemOID="IT.LB.LBCAT" Comparator="EQ">
             <CheckValue>URINALYSIS</CheckValue>
           </RangeCheck>
           <RangeCheck SoftHard="Soft" def:ItemOID="IT.LB.LBTESTCD" Comparator="EQ">
             <CheckValue>BILI</CheckValue>
           </RangeCheck>
         </def:WhereClauseDef>
         <!-- ** WhereClauseDef for: WC.LB.LBCAT.LBORRES.URINALYSISandLBTESTCDEQGLUC ** -->
         <def:WhereClauseDef OID = "WC.LB.LBCAT.LBORRES.URINALYSISandLBTESTCDEQGLUC">
           <RangeCheck SoftHard="Soft" def:ItemOID="IT.LB.LBCAT" Comparator="EQ">
             <CheckValue>URINALYSIS</CheckValue>
           </RangeCheck>
           <RangeCheck SoftHard="Soft" def:ItemOID="IT.LB.LBTESTCD" Comparator="EQ">
             <CheckValue>GLUC</CheckValue>
           </RangeCheck>
         </def:WhereClauseDef>
         <!-- ** WhereClauseDef for: WC.LB.LBCAT.LBORRES.URINALYSISandLBTESTCDEQPROT ** -->
         <def:WhereClauseDef OID = "WC.LB.LBCAT.LBORRES.URINALYSISandLBTESTCDEQPROT">
           <RangeCheck SoftHard="Soft" def:ItemOID="IT.LB.LBCAT" Comparator="EQ">
             <CheckValue>URINALYSIS</CheckValue>
           </RangeCheck>
           <RangeCheck SoftHard="Soft" def:ItemOID="IT.LB.LBTESTCD" Comparator="EQ">
             <CheckValue>PROT</CheckValue>
           </RangeCheck>
         </def:WhereClauseDef>
         <!-- ** WhereClauseDef for: WC.LB.LBCAT.LBORRES.URINALYSISandLBTESTCDEQRBC ** -->
         <def:WhereClauseDef OID = "WC.LB.LBCAT.LBORRES.URINALYSISandLBTESTCDEQRBC">
           <RangeCheck SoftHard="Soft" def:ItemOID="IT.LB.LBCAT" Comparator="EQ">
             <CheckValue>URINALYSIS</CheckValue>
           </RangeCheck>
           <RangeCheck SoftHard="Soft" def:ItemOID="IT.LB.LBTESTCD" Comparator="EQ">
             <CheckValue>RBC</CheckValue>
           </RangeCheck>
         </def:WhereClauseDef>
         <!-- ** WhereClauseDef for: WC.LB.LBCAT.LBORRES.URINALYSISandLBTESTCDEQWBC ** -->
         <def:WhereClauseDef OID = "WC.LB.LBCAT.LBORRES.URINALYSISandLBTESTCDEQWBC">
           <RangeCheck SoftHard="Soft" def:ItemOID="IT.LB.LBCAT" Comparator="EQ">
             <CheckValue>URINALYSIS</CheckValue>
           </RangeCheck>
           <RangeCheck SoftHard="Soft" def:ItemOID="IT.LB.LBTESTCD" Comparator="EQ">
             <CheckValue>WBC</CheckValue>
           </RangeCheck>
         </def:WhereClauseDef>
         <!-- ** WhereClauseDef for: WC.LB.LBTESTCD.LBORRES.UROBIL ** -->
         <def:WhereClauseDef OID = "WC.LB.LBTESTCD.LBORRES.UROBIL">
           <RangeCheck SoftHard="Soft" def:ItemOID="IT.LB.LBTESTCD" Comparator="EQ">
             <CheckValue>UROBIL</CheckValue>
           </RangeCheck>
         </def:WhereClauseDef>
         <!-- ** WhereClauseDef for: WC.PC.PCTESTCD.PCORRES.ONO4578 ** -->
         <def:WhereClauseDef OID = "WC.PC.PCTESTCD.PCORRES.ONO4578">
           <RangeCheck SoftHard="Soft" def:ItemOID="IT.PC.PCTESTCD" Comparator="EQ">
             <CheckValue>ONO4578</CheckValue>
           </RangeCheck>
         </def:WhereClauseDef>
        <!-- ** WhereClauseDef for: WC.PP.PPTESTCD.PPORRES.AUCIFO ** -->
         <def:WhereClauseDef OID = "WC.PP.PPTESTCD.PPORRES.AUCIFO">
           <RangeCheck SoftHard="Soft" def:ItemOID="IT.PP.PPTESTCD" Comparator="EQ">
             <CheckValue>AUCIFO</CheckValue>
           </RangeCheck>
         </def:WhereClauseDef>	
        <!-- ** WhereClauseDef for: WC.PP.PPTESTCD.PPORRES.AUCLST ** -->
         <def:WhereClauseDef OID = "WC.PP.PPTESTCD.PPORRES.AUCLST">
           <RangeCheck SoftHard="Soft" def:ItemOID="IT.PP.PPTESTCD" Comparator="EQ">
             <CheckValue>AUCLST</CheckValue>
           </RangeCheck>
         </def:WhereClauseDef>	
        <!-- ** WhereClauseDef for: WC.PP.PPTESTCD.PPORRES.AUCPEO ** -->
         <def:WhereClauseDef OID = "WC.PP.PPTESTCD.PPORRES.AUCPEO">
           <RangeCheck SoftHard="Soft" def:ItemOID="IT.PP.PPTESTCD" Comparator="EQ">
             <CheckValue>AUCPEO</CheckValue>
           </RangeCheck>
         </def:WhereClauseDef>	
        <!-- ** WhereClauseDef for: WC.PP.PPTESTCD.PPORRES.CLFO ** -->
         <def:WhereClauseDef OID = "WC.PP.PPTESTCD.PPORRES.CLFO">
           <RangeCheck SoftHard="Soft" def:ItemOID="IT.PP.PPTESTCD" Comparator="EQ">
             <CheckValue>CLFO</CheckValue>
           </RangeCheck>
         </def:WhereClauseDef>	
        <!-- ** WhereClauseDef for: WC.PP.PPTESTCD.PPORRES.CMAX ** -->
         <def:WhereClauseDef OID = "WC.PP.PPTESTCD.PPORRES.CMAX">
           <RangeCheck SoftHard="Soft" def:ItemOID="IT.PP.PPTESTCD" Comparator="EQ">
             <CheckValue>CMAX</CheckValue>
           </RangeCheck>
         </def:WhereClauseDef>	
        <!-- ** WhereClauseDef for: WC.PP.PPTESTCD.PPORRES.LAMZ ** -->
         <def:WhereClauseDef OID = "WC.PP.PPTESTCD.PPORRES.LAMZ">
           <RangeCheck SoftHard="Soft" def:ItemOID="IT.PP.PPTESTCD" Comparator="EQ">
             <CheckValue>LAMZ</CheckValue>
           </RangeCheck>
         </def:WhereClauseDef>	
        <!-- ** WhereClauseDef for: WC.PP.PPTESTCD.PPORRES.LAMZHL ** -->
         <def:WhereClauseDef OID = "WC.PP.PPTESTCD.PPORRES.LAMZHL">
           <RangeCheck SoftHard="Soft" def:ItemOID="IT.PP.PPTESTCD" Comparator="EQ">
             <CheckValue>LAMZHL</CheckValue>
           </RangeCheck>
		 </def:WhereClauseDef>	
          <!-- ** WhereClauseDef for: WC.PP.PPTESTCD.PPORRES.MRTIVIFO ** -->
         <def:WhereClauseDef OID = "WC.PP.PPTESTCD.PPORRES.MRTIVIFO">
           <RangeCheck SoftHard="Soft" def:ItemOID="IT.PP.PPTESTCD" Comparator="EQ">
             <CheckValue>MRTIVIFO</CheckValue>
           </RangeCheck>
         </def:WhereClauseDef>	
        <!-- ** WhereClauseDef for: WC.PP.PPTESTCD.PPORRES.TMAX ** -->
         <def:WhereClauseDef OID = "WC.PP.PPTESTCD.PPORRES.TMAX">
           <RangeCheck SoftHard="Soft" def:ItemOID="IT.PP.PPTESTCD" Comparator="EQ">
             <CheckValue>TMAX</CheckValue>
           </RangeCheck> 
         </def:WhereClauseDef>			 
        <!-- ** WhereClauseDef for: WC.VS.VSTESTCD.VSORRES.BMI ** -->
         <def:WhereClauseDef OID = "WC.VS.VSTESTCD.VSORRES.BMI">
           <RangeCheck SoftHard="Soft" def:ItemOID="IT.VS.VSTESTCD" Comparator="EQ">
             <CheckValue>BMI</CheckValue>
           </RangeCheck>
         </def:WhereClauseDef>	
        <!-- ** WhereClauseDef for: WC.VS.VSTESTCD.VSORRES.DIABP ** -->
         <def:WhereClauseDef OID = "WC.VS.VSTESTCD.VSORRES.DIABP">
           <RangeCheck SoftHard="Soft" def:ItemOID="IT.VS.VSTESTCD" Comparator="EQ">
             <CheckValue>DIABP</CheckValue>
           </RangeCheck>
         </def:WhereClauseDef>	
        <!-- ** WhereClauseDef for: WC.VS.VSTESTCD.VSORRES.HEIGHT ** -->
         <def:WhereClauseDef OID = "WC.VS.VSTESTCD.VSORRES.HEIGHT">
           <RangeCheck SoftHard="Soft" def:ItemOID="IT.VS.VSTESTCD" Comparator="EQ">
             <CheckValue>HEIGHT</CheckValue>
           </RangeCheck>
         </def:WhereClauseDef>	
        <!-- ** WhereClauseDef for: WC.VS.VSTESTCD.VSORRES.PULSE ** -->
         <def:WhereClauseDef OID = "WC.VS.VSTESTCD.VSORRES.PULSE">
           <RangeCheck SoftHard="Soft" def:ItemOID="IT.VS.VSTESTCD" Comparator="EQ">
             <CheckValue>PULSE</CheckValue>
           </RangeCheck>
         </def:WhereClauseDef>	
        <!-- ** WhereClauseDef for: WC.VS.VSTESTCD.VSORRES.SYSBP ** -->
         <def:WhereClauseDef OID = "WC.VS.VSTESTCD.VSORRES.SYSBP">
           <RangeCheck SoftHard="Soft" def:ItemOID="IT.VS.VSTESTCD" Comparator="EQ">
             <CheckValue>SYSBP</CheckValue>
           </RangeCheck>
         </def:WhereClauseDef>	
        <!-- ** WhereClauseDef for: WC.VS.VSTESTCD.VSORRES.TEMP ** -->
         <def:WhereClauseDef OID = "WC.VS.VSTESTCD.VSORRES.TEMP">
           <RangeCheck SoftHard="Soft" def:ItemOID="IT.VS.VSTESTCD" Comparator="EQ">
             <CheckValue>TEMP</CheckValue>
           </RangeCheck>
         </def:WhereClauseDef>	
        <!-- ** WhereClauseDef for: WC.VS.VSTESTCD.VSORRES.WEIGHT ** -->
         <def:WhereClauseDef OID = "WC.VS.VSTESTCD.VSORRES.WEIGHT">
           <RangeCheck SoftHard="Soft" def:ItemOID="IT.VS.VSTESTCD" Comparator="EQ">
             <CheckValue>WEIGHT</CheckValue>
           </RangeCheck>
		 </def:WhereClauseDef>	
          			 
		 
		 
         <!-- ** WhereClauseDef for: WC.SUPPAE.QNAM.QVAL.AEPERIOD ** -->
         <def:WhereClauseDef OID = "WC.SUPPAE.QNAM.QVAL.AEPERIOD">
           <RangeCheck SoftHard="Soft" def:ItemOID="IT.SUPPAE.QNAM" Comparator="EQ">
             <CheckValue>AEPERIOD</CheckValue>
           </RangeCheck>
         </def:WhereClauseDef>
         <!-- ** WhereClauseDef for: WC.SUPPAE.QNAM.QVAL.AETRTEM ** -->
         <def:WhereClauseDef OID = "WC.SUPPAE.QNAM.QVAL.AETRTEM">
           <RangeCheck SoftHard="Soft" def:ItemOID="IT.SUPPAE.QNAM" Comparator="EQ">
             <CheckValue>AETRTEM</CheckValue>
           </RangeCheck>
         </def:WhereClauseDef>
         <!-- ** WhereClauseDef for: WC.SUPPCM.QNAM.QVAL.CMAENO1 ** -->
         <def:WhereClauseDef OID = "WC.SUPPCM.QNAM.QVAL.CMAENO1">
           <RangeCheck SoftHard="Soft" def:ItemOID="IT.SUPPCM.QNAM" Comparator="EQ">
             <CheckValue>CMAENO1</CheckValue>
           </RangeCheck>
         </def:WhereClauseDef>
         <!-- ** WhereClauseDef for: WC.SUPPCM.QNAM.QVAL.CMDOSUOT ** -->
         <def:WhereClauseDef OID = "WC.SUPPCM.QNAM.QVAL.CMDOSUOT">
           <RangeCheck SoftHard="Soft" def:ItemOID="IT.SUPPCM.QNAM" Comparator="EQ">
             <CheckValue>CMDOSUOT</CheckValue>
           </RangeCheck>
         </def:WhereClauseDef>
         <!-- ** WhereClauseDef for: WC.SUPPCM.QNAM.QVAL.CMINDCO ** -->
         <def:WhereClauseDef OID = "WC.SUPPCM.QNAM.QVAL.CMINDCO">
           <RangeCheck SoftHard="Soft" def:ItemOID="IT.SUPPCM.QNAM" Comparator="EQ">
             <CheckValue>CMINDCO</CheckValue>
           </RangeCheck>
         </def:WhereClauseDef>
         <!-- ** WhereClauseDef for: WC.SUPPCM.QNAM.QVAL.PNCD ** -->
         <def:WhereClauseDef OID = "WC.SUPPCM.QNAM.QVAL.PNCD">
           <RangeCheck SoftHard="Soft" def:ItemOID="IT.SUPPCM.QNAM" Comparator="EQ">
             <CheckValue>PNCD</CheckValue>
           </RangeCheck>
         </def:WhereClauseDef>
         <!-- ** WhereClauseDef for: WC.SUPPEC.QNAM.QVAL.DOSCOMP ** -->
         <def:WhereClauseDef OID = "WC.SUPPEC.QNAM.QVAL.DOSCOMP">
           <RangeCheck SoftHard="Soft" def:ItemOID="IT.SUPPEC.QNAM" Comparator="EQ">
             <CheckValue>DOSCOMP</CheckValue>
           </RangeCheck>
         </def:WhereClauseDef>
         <!-- ** WhereClauseDef for: WC.SUPPEX.QNAM.QVAL.DOSCOMP ** -->
         <def:WhereClauseDef OID = "WC.SUPPEX.QNAM.QVAL.DOSCOMP">
           <RangeCheck SoftHard="Soft" def:ItemOID="IT.SUPPEX.QNAM" Comparator="EQ">
             <CheckValue>DOSCOMP</CheckValue>
           </RangeCheck>
         </def:WhereClauseDef>
         <!-- ** WhereClauseDef for: WC.SUPPIE.QNAM.QVAL.PROTVRSN ** -->
         <def:WhereClauseDef OID = "WC.SUPPIE.QNAM.QVAL.PROTVRSN">
           <RangeCheck SoftHard="Soft" def:ItemOID="IT.SUPPIE.QNAM" Comparator="EQ">
             <CheckValue>PROTVRSN</CheckValue>
           </RangeCheck>
         </def:WhereClauseDef>
         <!-- ** WhereClauseDef for: WC.SUPPLB.QNAM.QVAL.LBORU ** -->
         <def:WhereClauseDef OID = "WC.SUPPLB.QNAM.QVAL.LBORU">
           <RangeCheck SoftHard="Soft" def:ItemOID="IT.SUPPLB.QNAM" Comparator="EQ">
             <CheckValue>LBORU</CheckValue>
           </RangeCheck>
         </def:WhereClauseDef>
         <!-- ** WhereClauseDef for: WC.SUPPPC.QNAM.QVAL.PCORU ** -->
         <def:WhereClauseDef OID = "WC.SUPPPC.QNAM.QVAL.PCORU">
           <RangeCheck SoftHard="Soft" def:ItemOID="IT.SUPPPC.QNAM" Comparator="EQ">
             <CheckValue>PCORU</CheckValue>
           </RangeCheck>
         </def:WhereClauseDef>
         <!-- ** WhereClauseDef for: WC.SUPPPR.QNAM.QVAL.PRAENO1 ** -->
         <def:WhereClauseDef OID = "WC.SUPPPR.QNAM.QVAL.PRAENO1">
           <RangeCheck SoftHard="Soft" def:ItemOID="IT.SUPPPR.QNAM" Comparator="EQ">
             <CheckValue>PRAENO1</CheckValue>
           </RangeCheck>
         </def:WhereClauseDef>
         <!-- ** WhereClauseDef for: WC.TS.TSPARMCD.TSVAL.ACTSUB ** -->
         <def:WhereClauseDef OID = "WC.TS.TSPARMCD.TSVAL.ACTSUB">
           <RangeCheck SoftHard="Soft" def:ItemOID="IT.TS.TSPARMCD" Comparator="EQ">
             <CheckValue>ACTSUB</CheckValue>
           </RangeCheck>
         </def:WhereClauseDef>
         <!-- ** WhereClauseDef for: WC.TS.TSPARMCD.TSVAL.ADAPT ** -->
         <def:WhereClauseDef OID = "WC.TS.TSPARMCD.TSVAL.ADAPT">
           <RangeCheck SoftHard="Soft" def:ItemOID="IT.TS.TSPARMCD" Comparator="EQ">
             <CheckValue>ADAPT</CheckValue>
           </RangeCheck>
         </def:WhereClauseDef>
         <!-- ** WhereClauseDef for: WC.TS.TSPARMCD.TSVAL.ADDON ** -->
         <def:WhereClauseDef OID = "WC.TS.TSPARMCD.TSVAL.ADDON">
           <RangeCheck SoftHard="Soft" def:ItemOID="IT.TS.TSPARMCD" Comparator="EQ">
             <CheckValue>ADDON</CheckValue>
           </RangeCheck>
         </def:WhereClauseDef>
         <!-- ** WhereClauseDef for: WC.TS.TSPARMCD.TSVAL.AGEMAX ** -->
         <def:WhereClauseDef OID = "WC.TS.TSPARMCD.TSVAL.AGEMAX">
           <RangeCheck SoftHard="Soft" def:ItemOID="IT.TS.TSPARMCD" Comparator="EQ">
             <CheckValue>AGEMAX</CheckValue>
           </RangeCheck>
         </def:WhereClauseDef>
         <!-- ** WhereClauseDef for: WC.TS.TSPARMCD.TSVAL.AGEMIN ** -->
         <def:WhereClauseDef OID = "WC.TS.TSPARMCD.TSVAL.AGEMIN">
           <RangeCheck SoftHard="Soft" def:ItemOID="IT.TS.TSPARMCD" Comparator="EQ">
             <CheckValue>AGEMIN</CheckValue>
           </RangeCheck>
         </def:WhereClauseDef>
         <!-- ** WhereClauseDef for: WC.TS.TSPARMCD.TSVAL.CURTRT ** -->
         <def:WhereClauseDef OID = "WC.TS.TSPARMCD.TSVAL.CURTRT">
           <RangeCheck SoftHard="Soft" def:ItemOID="IT.TS.TSPARMCD" Comparator="EQ">
             <CheckValue>CURTRT</CheckValue>
           </RangeCheck>
         </def:WhereClauseDef>
         <!-- ** WhereClauseDef for: WC.TS.TSPARMCD.TSVAL.DCUTDESC ** -->
         <def:WhereClauseDef OID = "WC.TS.TSPARMCD.TSVAL.DCUTDESC">
           <RangeCheck SoftHard="Soft" def:ItemOID="IT.TS.TSPARMCD" Comparator="EQ">
             <CheckValue>DCUTDESC</CheckValue>
           </RangeCheck>
         </def:WhereClauseDef>
         <!-- ** WhereClauseDef for: WC.TS.TSPARMCD.TSVAL.DCUTDTC ** -->
         <def:WhereClauseDef OID = "WC.TS.TSPARMCD.TSVAL.DCUTDTC">
           <RangeCheck SoftHard="Soft" def:ItemOID="IT.TS.TSPARMCD" Comparator="EQ">
             <CheckValue>DCUTDTC</CheckValue>
           </RangeCheck>
         </def:WhereClauseDef>
         <!-- ** WhereClauseDef for: WC.TS.TSPARMCD.TSVAL.FCNTRY ** -->
         <def:WhereClauseDef OID = "WC.TS.TSPARMCD.TSVAL.FCNTRY">
           <RangeCheck SoftHard="Soft" def:ItemOID="IT.TS.TSPARMCD" Comparator="EQ">
             <CheckValue>FCNTRY</CheckValue>
           </RangeCheck>
         </def:WhereClauseDef>
         <!-- ** WhereClauseDef for: WC.TS.TSPARMCD.TSVAL.HLTSUBJI ** -->
         <def:WhereClauseDef OID = "WC.TS.TSPARMCD.TSVAL.HLTSUBJI">
           <RangeCheck SoftHard="Soft" def:ItemOID="IT.TS.TSPARMCD" Comparator="EQ">
             <CheckValue>HLTSUBJI</CheckValue>
           </RangeCheck>
         </def:WhereClauseDef>
         <!-- ** WhereClauseDef for: WC.TS.TSPARMCD.TSVAL.INDIC ** -->
         <def:WhereClauseDef OID = "WC.TS.TSPARMCD.TSVAL.INDIC">
           <RangeCheck SoftHard="Soft" def:ItemOID="IT.TS.TSPARMCD" Comparator="EQ">
             <CheckValue>INDIC</CheckValue>
           </RangeCheck>
         </def:WhereClauseDef>
         <!-- ** WhereClauseDef for: WC.TS.TSPARMCD.TSVAL.INTMODEL ** -->
         <def:WhereClauseDef OID = "WC.TS.TSPARMCD.TSVAL.INTMODEL">
           <RangeCheck SoftHard="Soft" def:ItemOID="IT.TS.TSPARMCD" Comparator="EQ">
             <CheckValue>INTMODEL</CheckValue>
           </RangeCheck>
         </def:WhereClauseDef>
         <!-- ** WhereClauseDef for: WC.TS.TSPARMCD.TSVAL.INTTYPE ** -->
         <def:WhereClauseDef OID = "WC.TS.TSPARMCD.TSVAL.INTTYPE">
           <RangeCheck SoftHard="Soft" def:ItemOID="IT.TS.TSPARMCD" Comparator="EQ">
             <CheckValue>INTTYPE</CheckValue>
           </RangeCheck>
         </def:WhereClauseDef>
         <!-- ** WhereClauseDef for: WC.TS.TSPARMCD.TSVAL.LENGTH ** -->
         <def:WhereClauseDef OID = "WC.TS.TSPARMCD.TSVAL.LENGTH">
           <RangeCheck SoftHard="Soft" def:ItemOID="IT.TS.TSPARMCD" Comparator="EQ">
             <CheckValue>LENGTH</CheckValue>
           </RangeCheck>
         </def:WhereClauseDef>
         <!-- ** WhereClauseDef for: WC.TS.TSPARMCD.TSVAL.NARMS ** -->
         <def:WhereClauseDef OID = "WC.TS.TSPARMCD.TSVAL.NARMS">
           <RangeCheck SoftHard="Soft" def:ItemOID="IT.TS.TSPARMCD" Comparator="EQ">
             <CheckValue>NARMS</CheckValue>
           </RangeCheck>
         </def:WhereClauseDef>
         <!-- ** WhereClauseDef for: WC.TS.TSPARMCD.TSVAL.OBJPRIM ** -->
         <def:WhereClauseDef OID = "WC.TS.TSPARMCD.TSVAL.OBJPRIM">
           <RangeCheck SoftHard="Soft" def:ItemOID="IT.TS.TSPARMCD" Comparator="EQ">
             <CheckValue>OBJPRIM</CheckValue>
           </RangeCheck>
         </def:WhereClauseDef>
         <!-- ** WhereClauseDef for: WC.TS.TSPARMCD.TSVAL.OBJSEC ** -->
         <def:WhereClauseDef OID = "WC.TS.TSPARMCD.TSVAL.OBJSEC">
           <RangeCheck SoftHard="Soft" def:ItemOID="IT.TS.TSPARMCD" Comparator="EQ">
             <CheckValue>OBJSEC</CheckValue>
           </RangeCheck>
         </def:WhereClauseDef>
         <!-- ** WhereClauseDef for: WC.TS.TSPARMCD.TSVAL.OUTMSPRI ** -->
         <def:WhereClauseDef OID = "WC.TS.TSPARMCD.TSVAL.OUTMSPRI">
           <RangeCheck SoftHard="Soft" def:ItemOID="IT.TS.TSPARMCD" Comparator="EQ">
             <CheckValue>OUTMSPRI</CheckValue>
           </RangeCheck>
         </def:WhereClauseDef>
         <!-- ** WhereClauseDef for: WC.TS.TSPARMCD.TSVAL.OUTMSSEC ** -->
         <def:WhereClauseDef OID = "WC.TS.TSPARMCD.TSVAL.OUTMSSEC">
           <RangeCheck SoftHard="Soft" def:ItemOID="IT.TS.TSPARMCD" Comparator="EQ">
             <CheckValue>OUTMSSEC</CheckValue>
           </RangeCheck>
         </def:WhereClauseDef>
         <!-- ** WhereClauseDef for: WC.TS.TSPARMCD.TSVAL.PCLAS ** -->
         <def:WhereClauseDef OID = "WC.TS.TSPARMCD.TSVAL.PCLAS">
           <RangeCheck SoftHard="Soft" def:ItemOID="IT.TS.TSPARMCD" Comparator="EQ">
             <CheckValue>PCLAS</CheckValue>
           </RangeCheck>
         </def:WhereClauseDef>
         <!-- ** WhereClauseDef for: WC.TS.TSPARMCD.TSVAL.PLANSUB ** -->
         <def:WhereClauseDef OID = "WC.TS.TSPARMCD.TSVAL.PLANSUB">
           <RangeCheck SoftHard="Soft" def:ItemOID="IT.TS.TSPARMCD" Comparator="EQ">
             <CheckValue>PLANSUB</CheckValue>
           </RangeCheck>
         </def:WhereClauseDef>
         <!-- ** WhereClauseDef for: WC.TS.TSPARMCD.TSVAL.RANDOM ** -->
         <def:WhereClauseDef OID = "WC.TS.TSPARMCD.TSVAL.RANDOM">
           <RangeCheck SoftHard="Soft" def:ItemOID="IT.TS.TSPARMCD" Comparator="EQ">
             <CheckValue>RANDOM</CheckValue>
           </RangeCheck>
         </def:WhereClauseDef>
         <!-- ** WhereClauseDef for: WC.TS.TSPARMCD.TSVAL.REGID ** -->
         <def:WhereClauseDef OID = "WC.TS.TSPARMCD.TSVAL.REGID">
           <RangeCheck SoftHard="Soft" def:ItemOID="IT.TS.TSPARMCD" Comparator="EQ">
             <CheckValue>REGID</CheckValue>
           </RangeCheck>
         </def:WhereClauseDef>
         <!-- ** WhereClauseDef for: WC.TS.TSPARMCD.TSVAL.SENDTC ** -->
         <def:WhereClauseDef OID = "WC.TS.TSPARMCD.TSVAL.SENDTC">
           <RangeCheck SoftHard="Soft" def:ItemOID="IT.TS.TSPARMCD" Comparator="EQ">
             <CheckValue>SENDTC</CheckValue>
           </RangeCheck>
         </def:WhereClauseDef>
         <!-- ** WhereClauseDef for: WC.TS.TSPARMCD.TSVAL.SEXPOP ** -->
         <def:WhereClauseDef OID = "WC.TS.TSPARMCD.TSVAL.SEXPOP">
           <RangeCheck SoftHard="Soft" def:ItemOID="IT.TS.TSPARMCD" Comparator="EQ">
             <CheckValue>SEXPOP</CheckValue>
           </RangeCheck>
         </def:WhereClauseDef>
         <!-- ** WhereClauseDef for: WC.TS.TSPARMCD.TSVAL.SPONSOR ** -->
         <def:WhereClauseDef OID = "WC.TS.TSPARMCD.TSVAL.SPONSOR">
           <RangeCheck SoftHard="Soft" def:ItemOID="IT.TS.TSPARMCD" Comparator="EQ">
             <CheckValue>SPONSOR</CheckValue>
           </RangeCheck>
         </def:WhereClauseDef>
         <!-- ** WhereClauseDef for: WC.TS.TSPARMCD.TSVAL.SSTDTC ** -->
         <def:WhereClauseDef OID = "WC.TS.TSPARMCD.TSVAL.SSTDTC">
           <RangeCheck SoftHard="Soft" def:ItemOID="IT.TS.TSPARMCD" Comparator="EQ">
             <CheckValue>SSTDTC</CheckValue>
           </RangeCheck>
         </def:WhereClauseDef>
         <!-- ** WhereClauseDef for: WC.TS.TSPARMCD.TSVAL.STOPRULE ** -->
         <def:WhereClauseDef OID = "WC.TS.TSPARMCD.TSVAL.STOPRULE">
           <RangeCheck SoftHard="Soft" def:ItemOID="IT.TS.TSPARMCD" Comparator="EQ">
             <CheckValue>STOPRULE</CheckValue>
           </RangeCheck>
         </def:WhereClauseDef>
         <!-- ** WhereClauseDef for: WC.TS.TSPARMCD.TSVAL.STRATFCT ** -->
         <def:WhereClauseDef OID = "WC.TS.TSPARMCD.TSVAL.STRATFCT">
           <RangeCheck SoftHard="Soft" def:ItemOID="IT.TS.TSPARMCD" Comparator="EQ">
             <CheckValue>STRATFCT</CheckValue>
           </RangeCheck>
         </def:WhereClauseDef>
         <!-- ** WhereClauseDef for: WC.TS.TSPARMCD.TSVAL.STYPE ** -->
         <def:WhereClauseDef OID = "WC.TS.TSPARMCD.TSVAL.STYPE">
           <RangeCheck SoftHard="Soft" def:ItemOID="IT.TS.TSPARMCD" Comparator="EQ">
             <CheckValue>STYPE</CheckValue>
           </RangeCheck>
         </def:WhereClauseDef>
         <!-- ** WhereClauseDef for: WC.TS.TSPARMCD.TSVAL.TBLIND ** -->
         <def:WhereClauseDef OID = "WC.TS.TSPARMCD.TSVAL.TBLIND">
           <RangeCheck SoftHard="Soft" def:ItemOID="IT.TS.TSPARMCD" Comparator="EQ">
             <CheckValue>TBLIND</CheckValue>
           </RangeCheck>
         </def:WhereClauseDef>
         <!-- ** WhereClauseDef for: WC.TS.TSPARMCD.TSVAL.TCNTRL ** -->
         <def:WhereClauseDef OID = "WC.TS.TSPARMCD.TSVAL.TCNTRL">
           <RangeCheck SoftHard="Soft" def:ItemOID="IT.TS.TSPARMCD" Comparator="EQ">
             <CheckValue>TCNTRL</CheckValue>
           </RangeCheck>
         </def:WhereClauseDef>
         <!-- ** WhereClauseDef for: WC.TS.TSPARMCD.TSVAL.TDIGRP ** -->
         <def:WhereClauseDef OID = "WC.TS.TSPARMCD.TSVAL.TDIGRP">
           <RangeCheck SoftHard="Soft" def:ItemOID="IT.TS.TSPARMCD" Comparator="EQ">
             <CheckValue>TDIGRP</CheckValue>
           </RangeCheck>
         </def:WhereClauseDef>
         <!-- ** WhereClauseDef for: WC.TS.TSPARMCD.TSVAL.TINDTP ** -->
         <def:WhereClauseDef OID = "WC.TS.TSPARMCD.TSVAL.TINDTP">
           <RangeCheck SoftHard="Soft" def:ItemOID="IT.TS.TSPARMCD" Comparator="EQ">
             <CheckValue>TINDTP</CheckValue>
           </RangeCheck>
         </def:WhereClauseDef>
         <!-- ** WhereClauseDef for: WC.TS.TSPARMCD.TSVAL.TITLE ** -->
         <def:WhereClauseDef OID = "WC.TS.TSPARMCD.TSVAL.TITLE">
           <RangeCheck SoftHard="Soft" def:ItemOID="IT.TS.TSPARMCD" Comparator="EQ">
             <CheckValue>TITLE</CheckValue>
           </RangeCheck>
         </def:WhereClauseDef>
         <!-- ** WhereClauseDef for: WC.TS.TSPARMCD.TSVAL.TPHASE ** -->
         <def:WhereClauseDef OID = "WC.TS.TSPARMCD.TSVAL.TPHASE">
           <RangeCheck SoftHard="Soft" def:ItemOID="IT.TS.TSPARMCD" Comparator="EQ">
             <CheckValue>TPHASE</CheckValue>
           </RangeCheck>
         </def:WhereClauseDef>
         <!-- ** WhereClauseDef for: WC.TS.TSPARMCD.TSVAL.TRT ** -->
         <def:WhereClauseDef OID = "WC.TS.TSPARMCD.TSVAL.TRT">
           <RangeCheck SoftHard="Soft" def:ItemOID="IT.TS.TSPARMCD" Comparator="EQ">
             <CheckValue>TRT</CheckValue>
           </RangeCheck>
         </def:WhereClauseDef>
         <!-- ** WhereClauseDef for: WC.TS.TSPARMCD.TSVAL.TTYPE ** -->
         <def:WhereClauseDef OID = "WC.TS.TSPARMCD.TSVAL.TTYPE">
           <RangeCheck SoftHard="Soft" def:ItemOID="IT.TS.TSPARMCD" Comparator="EQ">
             <CheckValue>TTYPE</CheckValue>
           </RangeCheck>
         </def:WhereClauseDef>
		 
         <def:WhereClauseDef OID = "WC.TS.TSPARMCD.TSVAL.EXTTIND">
           <RangeCheck SoftHard="Soft" def:ItemOID="IT.TS.TSPARMCD" Comparator="EQ">
             <CheckValue>EXTTIND</CheckValue>
           </RangeCheck>
         </def:WhereClauseDef>
         <def:WhereClauseDef OID = "WC.TS.TSPARMCD.TSVAL.NCOHORT">
           <RangeCheck SoftHard="Soft" def:ItemOID="IT.TS.TSPARMCD" Comparator="EQ">
             <CheckValue>NCOHORT</CheckValue>
           </RangeCheck>
         </def:WhereClauseDef>
         <def:WhereClauseDef OID = "WC.TS.TSPARMCD.TSVAL.PDPSTIND">
           <RangeCheck SoftHard="Soft" def:ItemOID="IT.TS.TSPARMCD" Comparator="EQ">
             <CheckValue>PDPSTIND</CheckValue>
           </RangeCheck>
         </def:WhereClauseDef>
         <def:WhereClauseDef OID = "WC.TS.TSPARMCD.TSVAL.PDSTIND">
           <RangeCheck SoftHard="Soft" def:ItemOID="IT.TS.TSPARMCD" Comparator="EQ">
             <CheckValue>PDSTIND</CheckValue>
           </RangeCheck>
         </def:WhereClauseDef>
         <def:WhereClauseDef OID = "WC.TS.TSPARMCD.TSVAL.PIPIND">
           <RangeCheck SoftHard="Soft" def:ItemOID="IT.TS.TSPARMCD" Comparator="EQ">
             <CheckValue>PIPIND</CheckValue>
           </RangeCheck>
         </def:WhereClauseDef>
         <def:WhereClauseDef OID = "WC.TS.TSPARMCD.TSVAL.RDIND">
           <RangeCheck SoftHard="Soft" def:ItemOID="IT.TS.TSPARMCD" Comparator="EQ">
             <CheckValue>RDIND</CheckValue>
           </RangeCheck>
         </def:WhereClauseDef>
         <def:WhereClauseDef OID = "WC.TS.TSPARMCD.TSVAL.THERAREA">
           <RangeCheck SoftHard="Soft" def:ItemOID="IT.TS.TSPARMCD" Comparator="EQ">
             <CheckValue>THERAREA</CheckValue>
           </RangeCheck>
         </def:WhereClauseDef>
         <def:WhereClauseDef OID = "WC.TS.TSPARMCD.TSVAL.SDTIGVER">
           <RangeCheck SoftHard="Soft" def:ItemOID="IT.TS.TSPARMCD" Comparator="EQ">
             <CheckValue>SDTIGVER</CheckValue>
           </RangeCheck>
         </def:WhereClauseDef>
         <def:WhereClauseDef OID = "WC.TS.TSPARMCD.TSVAL.SDTMVER">
           <RangeCheck SoftHard="Soft" def:ItemOID="IT.TS.TSPARMCD" Comparator="EQ">
             <CheckValue>SDTMVER</CheckValue>
           </RangeCheck>
         </def:WhereClauseDef>		 
         <!-- **************************** -->
         <!--  WhereClauseDef Elements : END -->
         <!-- **************************** -->


         <!-- ****************************************************** -->
         <!-- ItemGroupDef Elements - ItemGroupDef & ItemRef : START -->
         <!-- ****************************************************** -->


         <!-- ** ItemGroupDef for: TA ** -->

         <ItemGroupDef OID="IG.TA"
           Domain="TA"
           Name="TA"
           Repeating="No"
           IsReferenceData="Yes"
           SASDatasetName="TA"
           Purpose="Tabulation"
           def:Structure="One record per planned Element per Arm"
           def:Class="TRIAL DESIGN"
           def:ArchiveLocationID="Location.ta">
           <Description>
             <TranslatedText xml:lang="en">Trial Arms</TranslatedText>
           </Description>

             <ItemRef ItemOID="IT.TA.STUDYID"
               OrderNumber="1"
               Mandatory="Yes"
               KeySequence="1"
               Role="Identifier"
               RoleCodeListOID="RLCT1"
               />
             <ItemRef ItemOID="IT.TA.DOMAIN"
               OrderNumber="2"
               Mandatory="Yes"
               Role="Identifier"
               RoleCodeListOID="RLCT1"
               />
             <ItemRef ItemOID="IT.TA.ARMCD"
               OrderNumber="3"
               Mandatory="Yes"
               KeySequence="2"
               Role="Topic"
               RoleCodeListOID="RLCT1"
               />
             <ItemRef ItemOID="IT.TA.ARM"
               OrderNumber="4"
               Mandatory="Yes"
               Role="Synonym Qualifier"
               RoleCodeListOID="RLCT1"
               />
             <ItemRef ItemOID="IT.TA.TAETORD"
               OrderNumber="5"
               Mandatory="Yes"
               KeySequence="3"
               Role="Timing"
               RoleCodeListOID="RLCT1"
               />
             <ItemRef ItemOID="IT.TA.ETCD"
               OrderNumber="6"
               Mandatory="Yes"
               Role="Record Qualifier"
               RoleCodeListOID="RLCT1"
               />
             <ItemRef ItemOID="IT.TA.ELEMENT"
               OrderNumber="7"
               Mandatory="No"
               Role="Synonym Qualifier"
               RoleCodeListOID="RLCT1"
               />
             <ItemRef ItemOID="IT.TA.TABRANCH"
               OrderNumber="8"
               Mandatory="No"
               Role="Rule"
               RoleCodeListOID="RLCT1"
               />
             <ItemRef ItemOID="IT.TA.TATRANS"
               OrderNumber="9"
               Mandatory="No"
               Role="Rule"
               RoleCodeListOID="RLCT1"
               />
             <ItemRef ItemOID="IT.TA.EPOCH"
               OrderNumber="10"
               Mandatory="Yes"
               Role="Timing"
               RoleCodeListOID="RLCT1"
               />
           <def:leaf ID="Location.ta" xlink:href="./ta.xpt">
           <def:title>ta.xpt</def:title>
           </def:leaf>
         </ItemGroupDef>


         <!-- ** ItemGroupDef for: TE ** -->

         <ItemGroupDef OID="IG.TE"
           Domain="TE"
           Name="TE"
           Repeating="No"
           IsReferenceData="Yes"
           SASDatasetName="TE"
           Purpose="Tabulation"
           def:Structure="One record per planned Element"
           def:Class="TRIAL DESIGN"
           def:ArchiveLocationID="Location.te">
           <Description>
             <TranslatedText xml:lang="en">Trial Elements</TranslatedText>
           </Description>

             <ItemRef ItemOID="IT.TE.STUDYID"
               OrderNumber="1"
               Mandatory="Yes"
               KeySequence="1"
               Role="Identifier"
               RoleCodeListOID="RLCT1"
               />
             <ItemRef ItemOID="IT.TE.DOMAIN"
               OrderNumber="2"
               Mandatory="Yes"
               Role="Identifier"
               RoleCodeListOID="RLCT1"
               />
             <ItemRef ItemOID="IT.TE.ETCD"
               OrderNumber="3"
               Mandatory="Yes"
               KeySequence="2"
               Role="Topic"
               RoleCodeListOID="RLCT1"
               />
             <ItemRef ItemOID="IT.TE.ELEMENT"
               OrderNumber="4"
               Mandatory="Yes"
               Role="Synonym Qualifier"
               RoleCodeListOID="RLCT1"
               />
             <ItemRef ItemOID="IT.TE.TESTRL"
               OrderNumber="5"
               Mandatory="Yes"
               Role="Rule"
               RoleCodeListOID="RLCT1"
               />
             <ItemRef ItemOID="IT.TE.TEENRL"
               OrderNumber="6"
               Mandatory="No"
               Role="Rule"
               RoleCodeListOID="RLCT1"
               />
             <ItemRef ItemOID="IT.TE.TEDUR"
               OrderNumber="7"
               Mandatory="No"
               Role="Timing"
               RoleCodeListOID="RLCT1"
               />
           <def:leaf ID="Location.te" xlink:href="./te.xpt">
           <def:title>te.xpt</def:title>
           </def:leaf>
         </ItemGroupDef>


         <!-- ** ItemGroupDef for: TI ** -->

         <ItemGroupDef OID="IG.TI"
           Domain="TI"
           Name="TI"
           Repeating="No"
           IsReferenceData="Yes"
           SASDatasetName="TI"
           Purpose="Tabulation"
           def:Structure="One record per I/E criterion"
           def:Class="TRIAL DESIGN"
           def:ArchiveLocationID="Location.ti">
           <Description>
             <TranslatedText xml:lang="en">Trial Inclusion/Exclusion Criteria</TranslatedText>
           </Description>

             <ItemRef ItemOID="IT.TI.STUDYID"
               OrderNumber="1"
               Mandatory="Yes"
               KeySequence="1"
               Role="Identifier"
               RoleCodeListOID="RLCT1"
               />
             <ItemRef ItemOID="IT.TI.DOMAIN"
               OrderNumber="2"
               Mandatory="Yes"
               Role="Identifier"
               RoleCodeListOID="RLCT1"
               />
             <ItemRef ItemOID="IT.TI.IETESTCD"
               OrderNumber="3"
               Mandatory="Yes"
               KeySequence="2"
               Role="Topic"
               RoleCodeListOID="RLCT1"
               />
             <ItemRef ItemOID="IT.TI.IETEST"
               OrderNumber="4"
               Mandatory="Yes"
               Role="Synonym Qualifier"
               RoleCodeListOID="RLCT1"
               />
             <ItemRef ItemOID="IT.TI.IECAT"
               OrderNumber="5"
               Mandatory="Yes"
               Role="Grouping Qualifier"
               RoleCodeListOID="RLCT1"
               />
             <ItemRef ItemOID="IT.TI.TIVERS"
               OrderNumber="6"
               Mandatory="No"
			   KeySequence="3"
               Role="Record Qualifier"
               RoleCodeListOID="RLCT1"
               />
           <def:leaf ID="Location.ti" xlink:href="./ti.xpt">
           <def:title>ti.xpt</def:title>
           </def:leaf>
         </ItemGroupDef>


         <!-- ** ItemGroupDef for: TS ** -->

         <ItemGroupDef OID="IG.TS"
           Domain="TS"
           Name="TS"
           Repeating="No"
           IsReferenceData="Yes"
           SASDatasetName="TS"
           Purpose="Tabulation"
           def:Structure="One record per trial summary parameter value"
           def:Class="TRIAL DESIGN"
           def:ArchiveLocationID="Location.ts">
           <Description>
             <TranslatedText xml:lang="en">Trial Summary</TranslatedText>
           </Description>

             <ItemRef ItemOID="IT.TS.STUDYID"
               OrderNumber="1"
               Mandatory="Yes"
               KeySequence="1"
               Role="Identifier"
               RoleCodeListOID="RLCT1"
               />
             <ItemRef ItemOID="IT.TS.DOMAIN"
               OrderNumber="2"
               Mandatory="Yes"
               Role="Identifier"
               RoleCodeListOID="RLCT1"
               />
             <ItemRef ItemOID="IT.TS.TSSEQ"
               OrderNumber="3"
               Mandatory="Yes"
               Role="Identifier"
               RoleCodeListOID="RLCT1"
               />
             <ItemRef ItemOID="IT.TS.TSPARMCD"
               OrderNumber="4"
               Mandatory="Yes"
               KeySequence="2"
               Role="Topic"
               RoleCodeListOID="RLCT1"
               />
             <ItemRef ItemOID="IT.TS.TSPARM"
               OrderNumber="5"
               Mandatory="Yes"
               Role="Synonym Qualifier"
               RoleCodeListOID="RLCT1"
               />
             <ItemRef ItemOID="IT.TS.TSVAL"
               OrderNumber="6"
               Mandatory="No"
               KeySequence="3"
               Role="Result Qualifier"
               RoleCodeListOID="RLCT1"
               />
            
             <ItemRef ItemOID="IT.TS.TSVALNF"
               OrderNumber="8"
               Mandatory="No"
               Role="Result Qualifier"
               RoleCodeListOID="RLCT1"
               />
             <ItemRef ItemOID="IT.TS.TSVALCD"
               OrderNumber="9"
               Mandatory="No"
               Role="Result Qualifier"
               RoleCodeListOID="RLCT1"
               />
             <ItemRef ItemOID="IT.TS.TSVCDREF"
               OrderNumber="10"
               Mandatory="No"
               Role="Result Qualifier"
               RoleCodeListOID="RLCT1"
               />
             <ItemRef ItemOID="IT.TS.TSVCDVER"
               OrderNumber="11"
               Mandatory="No"
               Role="Result Qualifier"
               RoleCodeListOID="RLCT1"
               />
           <def:leaf ID="Location.ts" xlink:href="./ts.xpt">
           <def:title>ts.xpt</def:title>
           </def:leaf>
         </ItemGroupDef>


         <!-- ** ItemGroupDef for: TV ** -->

         <ItemGroupDef OID="IG.TV"
           Domain="TV"
           Name="TV"
           Repeating="No"
           IsReferenceData="Yes"
           SASDatasetName="TV"
           Purpose="Tabulation"
           def:Structure="One record per planned Visit per Arm"
           def:Class="TRIAL DESIGN"
           def:ArchiveLocationID="Location.tv">
           <Description>
             <TranslatedText xml:lang="en">Trial Visits</TranslatedText>
           </Description>

             <ItemRef ItemOID="IT.TV.STUDYID"
               OrderNumber="1"
               Mandatory="Yes"
               KeySequence="1"
               Role="Identifier"
               RoleCodeListOID="RLCT1"
               />
             <ItemRef ItemOID="IT.TV.DOMAIN"
               OrderNumber="2"
               Mandatory="Yes"
               Role="Identifier"
               RoleCodeListOID="RLCT1"
               />
             <ItemRef ItemOID="IT.TV.VISITNUM"
               OrderNumber="3"
               Mandatory="Yes"
               KeySequence="2"
               Role="Topic"
               RoleCodeListOID="RLCT1"
               />
             <ItemRef ItemOID="IT.TV.VISIT"
               OrderNumber="4"
               Mandatory="No"
               Role="Synonym Qualifier"
               RoleCodeListOID="RLCT1"
               />
             <ItemRef ItemOID="IT.TV.VISITDY"
               OrderNumber="5"
               Mandatory="No"
               Role="Timing"
               RoleCodeListOID="RLCT1"
               />
             <ItemRef ItemOID="IT.TV.ARMCD"
               OrderNumber="6"
               Mandatory="No"
               KeySequence="3"
               Role="Record Qualifier"
               RoleCodeListOID="RLCT1"
               />
             <ItemRef ItemOID="IT.TV.TVSTRL"
               OrderNumber="7"
               Mandatory="Yes"
               Role="Rule"
               RoleCodeListOID="RLCT1"
               />
             <ItemRef ItemOID="IT.TV.TVENRL"
               OrderNumber="8"
               Mandatory="No"
               Role="Rule"
               RoleCodeListOID="RLCT1"
               />
           <def:leaf ID="Location.tv" xlink:href="./tv.xpt">
           <def:title>tv.xpt</def:title>
           </def:leaf>
         </ItemGroupDef>


         <!-- ** ItemGroupDef for: CO ** -->

         <ItemGroupDef OID="IG.CO"
           Domain="CO"
           Name="CO"
           Repeating="No"
           IsReferenceData="No"
           SASDatasetName="CO"
           Purpose="Tabulation"
           def:Structure="One record per comment per subject"
           def:Class="SPECIAL PURPOSE"
           def:ArchiveLocationID="Location.co">
           <Description>
             <TranslatedText xml:lang="en">Comments</TranslatedText>
           </Description>

             <ItemRef ItemOID="IT.CO.STUDYID"
               OrderNumber="1"
               Mandatory="Yes"
               KeySequence="1"
               Role="Identifier"
               RoleCodeListOID="RLCT1"
               />
             <ItemRef ItemOID="IT.CO.DOMAIN"
               OrderNumber="2"
               Mandatory="Yes"
               Role="Identifier"
               RoleCodeListOID="RLCT1"
               />
             <ItemRef ItemOID="IT.CO.RDOMAIN"
               OrderNumber="3"
               Mandatory="No"
               KeySequence="3"
               Role="Record Qualifier"
               RoleCodeListOID="RLCT1"
               />
             <ItemRef ItemOID="IT.CO.USUBJID"
               OrderNumber="4"
               Mandatory="Yes"
               MethodOID="MT.CO.USUBJID"
               KeySequence="2"
               Role="Identifier"
               RoleCodeListOID="RLCT1"
               />
             <ItemRef ItemOID="IT.CO.COSEQ"
               OrderNumber="5"
               Mandatory="Yes"
               MethodOID="MT.CO.COSEQ"
               Role="Identifier"
               RoleCodeListOID="RLCT1"
               />
             <ItemRef ItemOID="IT.CO.IDVAR"
               OrderNumber="6"
               Mandatory="No"
               Role="Record Qualifier"
               RoleCodeListOID="RLCT1"
               />
             <ItemRef ItemOID="IT.CO.IDVARVAL"
               OrderNumber="7"
               Mandatory="No"
               KeySequence="4"
               Role="Record Qualifier"
               RoleCodeListOID="RLCT1"
               />
             <ItemRef ItemOID="IT.CO.COVAL"
               OrderNumber="8"
               Mandatory="Yes"
               KeySequence="5"
               Role="Topic"
               RoleCodeListOID="RLCT1"
               />
             <ItemRef ItemOID="IT.CO.COEVAL"
               OrderNumber="9"
               Mandatory="No"
               Role="Record Qualifier"
               RoleCodeListOID="RLCT1"
               />
           <def:leaf ID="Location.co" xlink:href="./co.xpt">
           <def:title>co.xpt</def:title>
           </def:leaf>
         </ItemGroupDef>


         <!-- ** ItemGroupDef for: DM ** -->

         <ItemGroupDef OID="IG.DM"
           Domain="DM"
           Name="DM"
           Repeating="No"
           IsReferenceData="No"
           SASDatasetName="DM"
           Purpose="Tabulation"
           def:Structure="One record per subject"
           def:Class="SPECIAL PURPOSE"
           def:ArchiveLocationID="Location.dm">
           <Description>
             <TranslatedText xml:lang="en">Demographics</TranslatedText>
           </Description>

             <ItemRef ItemOID="IT.DM.STUDYID"
               OrderNumber="1"
               Mandatory="Yes"
               KeySequence="1"
               Role="Identifier"
               RoleCodeListOID="RLCT1"
               />
             <ItemRef ItemOID="IT.DM.DOMAIN"
               OrderNumber="2"
               Mandatory="Yes"
               Role="Identifier"
               RoleCodeListOID="RLCT1"
               />
             <ItemRef ItemOID="IT.DM.USUBJID"
               OrderNumber="3"
               Mandatory="Yes"
               MethodOID="MT.DM.USUBJID"
               KeySequence="2"
               Role="Identifier"
               RoleCodeListOID="RLCT1"
               />
             <ItemRef ItemOID="IT.DM.SUBJID"
               OrderNumber="4"
               Mandatory="Yes"
               Role="Topic"
               RoleCodeListOID="RLCT1"
               />
             <ItemRef ItemOID="IT.DM.RFSTDTC"
               OrderNumber="5"
               Mandatory="No"
               MethodOID="MT.DM.RFSTDTC"
               Role="Record Qualifier"
               RoleCodeListOID="RLCT1"
               />
             <ItemRef ItemOID="IT.DM.RFENDTC"
               OrderNumber="6"
               Mandatory="No"
               Role="Record Qualifier"
               RoleCodeListOID="RLCT1"
               />
             <ItemRef ItemOID="IT.DM.RFXSTDTC"
               OrderNumber="7"
               Mandatory="No"
               MethodOID="MT.DM.RFXSTDTC"
               Role="Record Qualifier"
               RoleCodeListOID="RLCT1"
               />
             <ItemRef ItemOID="IT.DM.RFXENDTC"
               OrderNumber="8"
               Mandatory="No"
               MethodOID="MT.DM.RFXENDTC"
               Role="Record Qualifier"
               RoleCodeListOID="RLCT1"
               />
             <ItemRef ItemOID="IT.DM.RFICDTC"
               OrderNumber="9"
               Mandatory="No"
               Role="Record Qualifier"
               RoleCodeListOID="RLCT1"
               />
             <ItemRef ItemOID="IT.DM.RFPENDTC"
               OrderNumber="10"
               Mandatory="No"
               MethodOID="MT.DM.RFPENDTC"
               Role="Record Qualifier"
               RoleCodeListOID="RLCT1"
               />
             <ItemRef ItemOID="IT.DM.DTHDTC"
               OrderNumber="11"
               Mandatory="No"
               MethodOID="MT.DM.DTHDTC"
               Role="Record Qualifier"
               RoleCodeListOID="RLCT1"
               />
             <ItemRef ItemOID="IT.DM.DTHFL"
               OrderNumber="12"
               Mandatory="No"
               MethodOID="MT.DM.DTHFL"
               Role="Record Qualifier"
               RoleCodeListOID="RLCT1"
               />
             <ItemRef ItemOID="IT.DM.SITEID"
               OrderNumber="13"
               Mandatory="Yes"
               Role="Record Qualifier"
               RoleCodeListOID="RLCT1"
               />
             <ItemRef ItemOID="IT.DM.AGE"
               OrderNumber="14"
               Mandatory="No"
               Role="Record Qualifier"
               RoleCodeListOID="RLCT1"
               />
             <ItemRef ItemOID="IT.DM.AGEU"
               OrderNumber="15"
               Mandatory="No"
               Role="Variable Qualifier"
               RoleCodeListOID="RLCT1"
               />
             <ItemRef ItemOID="IT.DM.SEX"
               OrderNumber="16"
               Mandatory="Yes"
               Role="Record Qualifier"
               RoleCodeListOID="RLCT1"
               />
             <ItemRef ItemOID="IT.DM.RACE"
               OrderNumber="17"
               Mandatory="No"
               Role="Record Qualifier"
               RoleCodeListOID="RLCT1"
               />
             <ItemRef ItemOID="IT.DM.ARMCD"
               OrderNumber="18"
               Mandatory="Yes"
               Role="Record Qualifier"
               RoleCodeListOID="RLCT1"
               />
             <ItemRef ItemOID="IT.DM.ARM"
               OrderNumber="19"
               Mandatory="Yes"
               Role="Synonym Qualifier"
               RoleCodeListOID="RLCT1"
               />
             <ItemRef ItemOID="IT.DM.ACTARMCD"
               OrderNumber="20"
               Mandatory="Yes"
               Role="Record Qualifier"
               RoleCodeListOID="RLCT1"
               />
             <ItemRef ItemOID="IT.DM.ACTARM"
               OrderNumber="21"
               Mandatory="Yes"
               Role="Synonym Qualifier"
               RoleCodeListOID="RLCT1"
               />
             <ItemRef ItemOID="IT.DM.COUNTRY"
               OrderNumber="22"
               Mandatory="Yes"
               Role="Record Qualifier"
               RoleCodeListOID="RLCT1"
               />
           <def:leaf ID="Location.dm" xlink:href="./dm.xpt">
           <def:title>dm.xpt</def:title>
           </def:leaf>
         </ItemGroupDef>


         <!-- ** ItemGroupDef for: SE ** -->

         <ItemGroupDef OID="IG.SE"
           Domain="SE"
           Name="SE"
           Repeating="Yes"
           IsReferenceData="No"
           SASDatasetName="SE"
           Purpose="Tabulation"
           def:Structure="One record per actual Element per subject"
           def:Class="SPECIAL PURPOSE"
           def:ArchiveLocationID="Location.se">
           <Description>
             <TranslatedText xml:lang="en">Subject Elements</TranslatedText>
           </Description>

             <ItemRef ItemOID="IT.SE.STUDYID"
               OrderNumber="1"
               Mandatory="Yes"
               KeySequence="1"
               Role="Identifier"
               RoleCodeListOID="RLCT1"
               />
             <ItemRef ItemOID="IT.SE.DOMAIN"
               OrderNumber="2"
               Mandatory="Yes"
               Role="Identifier"
               RoleCodeListOID="RLCT1"
               />
             <ItemRef ItemOID="IT.SE.USUBJID"
               OrderNumber="3"
               Mandatory="Yes"
               MethodOID="MT.SE.USUBJID"
               KeySequence="2"
               Role="Identifier"
               RoleCodeListOID="RLCT1"
               />
             <ItemRef ItemOID="IT.SE.SESEQ"
               OrderNumber="4"
               Mandatory="Yes"
               MethodOID="MT.SE.SESEQ"
               Role="Identifier"
               RoleCodeListOID="RLCT1"
               />
             <ItemRef ItemOID="IT.SE.ETCD"
               OrderNumber="5"
               Mandatory="Yes"
               KeySequence="4"
               Role="Topic"
               RoleCodeListOID="RLCT1"
               />
             <ItemRef ItemOID="IT.SE.ELEMENT"
               OrderNumber="6"
               Mandatory="No"
               Role="Synonym Qualifier"
               RoleCodeListOID="RLCT1"
               />
             <ItemRef ItemOID="IT.SE.TAETORD"
               OrderNumber="7"
               Mandatory="No"
               KeySequence="3"
               Role="Timing"
               RoleCodeListOID="RLCT1"
               />
             <ItemRef ItemOID="IT.SE.EPOCH"
               OrderNumber="8"
               Mandatory="No"
               MethodOID="MT.SE.EPOCH"
               Role="Timing"
               RoleCodeListOID="RLCT1"
               />
             <ItemRef ItemOID="IT.SE.SESTDTC"
               OrderNumber="9"
               Mandatory="Yes"
               MethodOID="MT.SE.SESTDTC"
               KeySequence="5"
               Role="Timing"
               RoleCodeListOID="RLCT1"
               />
             <ItemRef ItemOID="IT.SE.SEENDTC"
               OrderNumber="10"
               Mandatory="No"
               MethodOID="MT.SE.SEENDTC"
               Role="Timing"
               RoleCodeListOID="RLCT1"
               />
             <ItemRef ItemOID="IT.SE.SESTDY"
               OrderNumber="11"
               Mandatory="No"
               MethodOID="MT.SE.SESTDY"
               Role="Timing"
               RoleCodeListOID="RLCT1"
               />
             <ItemRef ItemOID="IT.SE.SEENDY"
               OrderNumber="12"
               Mandatory="No"
               MethodOID="MT.SE.SEENDY"
               Role="Timing"
               RoleCodeListOID="RLCT1"
               />
           <def:leaf ID="Location.se" xlink:href="./se.xpt">
           <def:title>se.xpt</def:title>
           </def:leaf>
         </ItemGroupDef>


         <!-- ** ItemGroupDef for: SV ** -->

         <ItemGroupDef OID="IG.SV"
           Domain="SV"
           Name="SV"
           Repeating="Yes"
           IsReferenceData="No"
           SASDatasetName="SV"
           Purpose="Tabulation"
           def:Structure="One record per actual visit per subject"
           def:Class="SPECIAL PURPOSE"
           def:ArchiveLocationID="Location.sv">
           <Description>
             <TranslatedText xml:lang="en">Subject Visits</TranslatedText>
           </Description>

             <ItemRef ItemOID="IT.SV.STUDYID"
               OrderNumber="1"
               Mandatory="Yes"
               KeySequence="1"
               Role="Identifier"
               RoleCodeListOID="RLCT1"
               />
             <ItemRef ItemOID="IT.SV.DOMAIN"
               OrderNumber="2"
               Mandatory="Yes"
               Role="Identifier"
               RoleCodeListOID="RLCT1"
               />
             <ItemRef ItemOID="IT.SV.USUBJID"
               OrderNumber="3"
               Mandatory="Yes"
               MethodOID="MT.SV.USUBJID"
               KeySequence="2"
               Role="Identifier"
               RoleCodeListOID="RLCT1"
               />
             <ItemRef ItemOID="IT.SV.VISITNUM"
               OrderNumber="4"
               Mandatory="Yes"
               KeySequence="3"
               Role="Topic"
               RoleCodeListOID="RLCT1"
               />
             <ItemRef ItemOID="IT.SV.VISIT"
               OrderNumber="5"
               Mandatory="No"
               Role="Synonym Qualifier"
               RoleCodeListOID="RLCT1"
               />
             <ItemRef ItemOID="IT.SV.VISITDY"
               OrderNumber="6"
               Mandatory="No"
               Role="Timing"
               RoleCodeListOID="RLCT1"
               />
             <ItemRef ItemOID="IT.SV.EPOCH"
               OrderNumber="7"
               Mandatory="No"
               MethodOID="MT.SV.EPOCH"
               Role="Timing"
               RoleCodeListOID="RLCT1"
               />
             <ItemRef ItemOID="IT.SV.SVSTDTC"
               OrderNumber="8"
               Mandatory="No"
               Role="Timing"
               RoleCodeListOID="RLCT1"
               />
             <ItemRef ItemOID="IT.SV.SVENDTC"
               OrderNumber="9"
               Mandatory="No"
               Role="Timing"
               RoleCodeListOID="RLCT1"
               />
             <ItemRef ItemOID="IT.SV.SVSTDY"
               OrderNumber="10"
               Mandatory="No"
               MethodOID="MT.SV.SVSTDY"
               Role="Timing"
               RoleCodeListOID="RLCT1"
               />
             <ItemRef ItemOID="IT.SV.SVENDY"
               OrderNumber="11"
               Mandatory="No"
               MethodOID="MT.SV.SVENDY"
               Role="Timing"
               RoleCodeListOID="RLCT1"
               />
             <ItemRef ItemOID="IT.SV.SVUPDES"
               OrderNumber="12"
               Mandatory="No"
               Role="Synonym Qualifier"
               RoleCodeListOID="RLCT1"
               />
           <def:leaf ID="Location.sv" xlink:href="./sv.xpt">
           <def:title>sv.xpt</def:title>
           </def:leaf>
         </ItemGroupDef>


         <!-- ** ItemGroupDef for: CM ** -->

         <ItemGroupDef OID="IG.CM"
           Domain="CM"
           Name="CM"
           Repeating="Yes"
           IsReferenceData="No"
           SASDatasetName="CM"
           Purpose="Tabulation"
           def:Structure="One record per recorded medication occurrence or constant-dosing interval per subject."
           def:Class="INTERVENTIONS"
           def:ArchiveLocationID="Location.cm">
           <Description>
             <TranslatedText xml:lang="en">Concomitant Medications</TranslatedText>
           </Description>

             <ItemRef ItemOID="IT.CM.STUDYID"
               OrderNumber="1"
               Mandatory="Yes"
               KeySequence="1"
               Role="Identifier"
               RoleCodeListOID="RLCT1"
               />
             <ItemRef ItemOID="IT.CM.DOMAIN"
               OrderNumber="2"
               Mandatory="Yes"
               Role="Identifier"
               RoleCodeListOID="RLCT1"
               />
             <ItemRef ItemOID="IT.CM.USUBJID"
               OrderNumber="3"
               Mandatory="Yes"
               MethodOID="MT.CM.USUBJID"
               KeySequence="2"
               Role="Identifier"
               RoleCodeListOID="RLCT1"
               />
             <ItemRef ItemOID="IT.CM.CMSEQ"
               OrderNumber="4"
               Mandatory="Yes"
               MethodOID="MT.CM.CMSEQ"
               Role="Identifier"
               RoleCodeListOID="RLCT1"
               />
             <ItemRef ItemOID="IT.CM.CMSPID"
               OrderNumber="5"
               Mandatory="No"
               Role="Identifier"
               RoleCodeListOID="RLCT1"
               />
             <ItemRef ItemOID="IT.CM.CMTRT"
               OrderNumber="6"
               Mandatory="Yes"
               KeySequence="3"
               Role="Topic"
               RoleCodeListOID="RLCT1"
               />
             <ItemRef ItemOID="IT.CM.CMDECOD"
               OrderNumber="7"
               Mandatory="No"
               Role="Synonym Qualifier"
               RoleCodeListOID="RLCT1"
               />
             <ItemRef ItemOID="IT.CM.CMINDC"
               OrderNumber="8"
               Mandatory="No"
               Role="Record Qualifier"
               RoleCodeListOID="RLCT1"
               />
             <ItemRef ItemOID="IT.CM.CMDOSU"
               OrderNumber="9"
               Mandatory="No"
               Role="Variable Qualifier"
               RoleCodeListOID="RLCT1"
               />
             <ItemRef ItemOID="IT.CM.CMDOSTOT"
               OrderNumber="10"
               Mandatory="No"
               Role="Record Qualifier"
               RoleCodeListOID="RLCT1"
               />
             <ItemRef ItemOID="IT.CM.CMROUTE"
               OrderNumber="11"
               Mandatory="No"
               Role="Variable Qualifier"
               RoleCodeListOID="RLCT1"
               />
             <ItemRef ItemOID="IT.CM.EPOCH"
               OrderNumber="12"
               Mandatory="No"
               MethodOID="MT.CM.EPOCH"
               Role="Timing"
               RoleCodeListOID="RLCT1"
               />
             <ItemRef ItemOID="IT.CM.CMSTDTC"
               OrderNumber="13"
               Mandatory="No"
               KeySequence="4"
               Role="Timing"
               RoleCodeListOID="RLCT1"
               />
             <ItemRef ItemOID="IT.CM.CMENDTC"
               OrderNumber="14"
               Mandatory="No"
               Role="Timing"
               RoleCodeListOID="RLCT1"
               />
             <ItemRef ItemOID="IT.CM.CMSTDY"
               OrderNumber="15"
               Mandatory="No"
               MethodOID="MT.CM.CMSTDY"
               Role="Timing"
               RoleCodeListOID="RLCT1"
               />
             <ItemRef ItemOID="IT.CM.CMENDY"
               OrderNumber="16"
               Mandatory="No"
               MethodOID="MT.CM.CMENDY"
               Role="Timing"
               RoleCodeListOID="RLCT1"
               />
             <ItemRef ItemOID="IT.CM.CMENRTPT"
               OrderNumber="17"
               Mandatory="No"
               Role="Timing"
               RoleCodeListOID="RLCT1"
               />
             <ItemRef ItemOID="IT.CM.CMENTPT"
               OrderNumber="18"
               Mandatory="No"
               Role="Timing"
               RoleCodeListOID="RLCT1"
               />
           <def:leaf ID="Location.cm" xlink:href="./cm.xpt">
           <def:title>cm.xpt</def:title>
           </def:leaf>
         </ItemGroupDef>


         <!-- ** ItemGroupDef for: EC ** -->

         <ItemGroupDef OID="IG.EC"
           Domain="EC"
           Name="EC"
           Repeating="Yes"
           IsReferenceData="No"
           SASDatasetName="EC"
           Purpose="Tabulation"
           def:Structure="One record per protocol-specified study treatment, collected-dosing interval, per subject, per mood"
           def:Class="INTERVENTIONS"
           def:ArchiveLocationID="Location.ec">
           <Description>
             <TranslatedText xml:lang="en">Exposure as Collected</TranslatedText>
           </Description>

             <ItemRef ItemOID="IT.EC.STUDYID"
               OrderNumber="1"
               Mandatory="Yes"
               KeySequence="1"
               Role="Identifier"
               RoleCodeListOID="RLCT1"
               />
             <ItemRef ItemOID="IT.EC.DOMAIN"
               OrderNumber="2"
               Mandatory="Yes"
               Role="Identifier"
               RoleCodeListOID="RLCT1"
               />
             <ItemRef ItemOID="IT.EC.USUBJID"
               OrderNumber="3"
               Mandatory="Yes"
               MethodOID="MT.EC.USUBJID"
               KeySequence="2"
               Role="Identifier"
               RoleCodeListOID="RLCT1"
               />
             <ItemRef ItemOID="IT.EC.ECSEQ"
               OrderNumber="4"
               Mandatory="Yes"
               MethodOID="MT.EC.ECSEQ"
               Role="Identifier"
               RoleCodeListOID="RLCT1"
               />
             <ItemRef ItemOID="IT.EC.ECLNKID"
               OrderNumber="5"
               Mandatory="No"
               Role="Identifier"
               RoleCodeListOID="RLCT1"
               />
             <ItemRef ItemOID="IT.EC.ECTRT"
               OrderNumber="6"
               Mandatory="Yes"
               KeySequence="4"
               Role="Topic"
               RoleCodeListOID="RLCT1"
               />
             <ItemRef ItemOID="IT.EC.ECDOSE"
               OrderNumber="7"
               Mandatory="No"
               Role="Record Qualifier"
               RoleCodeListOID="RLCT1"
               />
             <ItemRef ItemOID="IT.EC.ECDOSU"
               OrderNumber="8"
               Mandatory="No"
               Role="Variable Qualifier"
               RoleCodeListOID="RLCT1"
               />
             <ItemRef ItemOID="IT.EC.ECDOSFRM"
               OrderNumber="9"
               Mandatory="No"
               Role="Variable Qualifier"
               RoleCodeListOID="RLCT1"
               />
             <ItemRef ItemOID="IT.EC.ECDOSFRQ"
               OrderNumber="10"
               Mandatory="No"
               Role="Variable Qualifier"
               RoleCodeListOID="RLCT1"
               />
             <ItemRef ItemOID="IT.EC.ECROUTE"
               OrderNumber="11"
               Mandatory="No"
               Role="Variable Qualifier"
               RoleCodeListOID="RLCT1"
               />
             <ItemRef ItemOID="IT.EC.ECFAST"
               OrderNumber="12"
               Mandatory="No"
               Role="Record Qualifier"
               RoleCodeListOID="RLCT1"
               />
             <ItemRef ItemOID="IT.EC.ECADJ"
               OrderNumber="13"
               Mandatory="No"
               Role="Record Qualifier"
               RoleCodeListOID="RLCT1"
               />
             <ItemRef ItemOID="IT.EC.EPOCH"
               OrderNumber="14"
               Mandatory="No"
               MethodOID="MT.EC.EPOCH"
               Role="Timing"
               RoleCodeListOID="RLCT1"
               />
             <ItemRef ItemOID="IT.EC.ECSTDTC"
               OrderNumber="15"
               Mandatory="No"
               KeySequence="3"
               Role="Timing"
               RoleCodeListOID="RLCT1"
               />
             <ItemRef ItemOID="IT.EC.ECENDTC"
               OrderNumber="16"
               Mandatory="No"
               Role="Timing"
               RoleCodeListOID="RLCT1"
               />
             <ItemRef ItemOID="IT.EC.ECSTDY"
               OrderNumber="17"
               Mandatory="No"
               MethodOID="MT.EC.ECSTDY"
               Role="Timing"
               RoleCodeListOID="RLCT1"
               />
             <ItemRef ItemOID="IT.EC.ECENDY"
               OrderNumber="18"
               Mandatory="No"
               MethodOID="MT.EC.ECENDY"
               Role="Timing"
               RoleCodeListOID="RLCT1"
               />
           <def:leaf ID="Location.ec" xlink:href="./ec.xpt">
           <def:title>ec.xpt</def:title>
           </def:leaf>
         </ItemGroupDef>


         <!-- ** ItemGroupDef for: EX ** -->

         <ItemGroupDef OID="IG.EX"
           Domain="EX"
           Name="EX"
           Repeating="Yes"
           IsReferenceData="No"
           SASDatasetName="EX"
           Purpose="Tabulation"
           def:Structure="One record per protocol-specified study treatment, constant-dosing interval, per subject"
           def:Class="INTERVENTIONS"
           def:ArchiveLocationID="Location.ex">
           <Description>
             <TranslatedText xml:lang="en">Exposure</TranslatedText>
           </Description>

             <ItemRef ItemOID="IT.EX.STUDYID"
               OrderNumber="1"
               Mandatory="Yes"
               KeySequence="1"
               Role="Identifier"
               RoleCodeListOID="RLCT1"
               />
             <ItemRef ItemOID="IT.EX.DOMAIN"
               OrderNumber="2"
               Mandatory="Yes"
               Role="Identifier"
               RoleCodeListOID="RLCT1"
               />
             <ItemRef ItemOID="IT.EX.USUBJID"
               OrderNumber="3"
               Mandatory="Yes"
               MethodOID="MT.EX.USUBJID"
               KeySequence="2"
               Role="Identifier"
               RoleCodeListOID="RLCT1"
               />
             <ItemRef ItemOID="IT.EX.EXSEQ"
               OrderNumber="4"
               Mandatory="Yes"
               MethodOID="MT.EX.EXSEQ"
               Role="Identifier"
               RoleCodeListOID="RLCT1"
               />
             <ItemRef ItemOID="IT.EX.EXLNKID"
               OrderNumber="5"
               Mandatory="No"
               Role="Identifier"
               RoleCodeListOID="RLCT1"
               />
             <ItemRef ItemOID="IT.EX.EXTRT"
               OrderNumber="6"
               Mandatory="Yes"
               KeySequence="4"
               Role="Topic"
               RoleCodeListOID="RLCT1"
               />
             <ItemRef ItemOID="IT.EX.EXDOSE"
               OrderNumber="7"
               Mandatory="No"
               Role="Record Qualifier"
               RoleCodeListOID="RLCT1"
               />
             <ItemRef ItemOID="IT.EX.EXDOSU"
               OrderNumber="8"
               Mandatory="No"
               Role="Variable Qualifier"
               RoleCodeListOID="RLCT1"
               />
             <ItemRef ItemOID="IT.EX.EXDOSFRM"
               OrderNumber="9"
               Mandatory="No"
               Role="Variable Qualifier"
               RoleCodeListOID="RLCT1"
               />
             <ItemRef ItemOID="IT.EX.EXDOSFRQ"
               OrderNumber="10"
               Mandatory="No"
               Role="Variable Qualifier"
               RoleCodeListOID="RLCT1"
               />
             <ItemRef ItemOID="IT.EX.EXROUTE"
               OrderNumber="11"
               Mandatory="No"
               Role="Variable Qualifier"
               RoleCodeListOID="RLCT1"
               />
             <ItemRef ItemOID="IT.EX.EXFAST"
               OrderNumber="12"
               Mandatory="No"
               Role="Record Qualifier"
               RoleCodeListOID="RLCT1"
               />
             <ItemRef ItemOID="IT.EX.EXADJ"
               OrderNumber="13"
               Mandatory="No"
               Role="Record Qualifier"
               RoleCodeListOID="RLCT1"
               />
             <ItemRef ItemOID="IT.EX.EPOCH"
               OrderNumber="14"
               Mandatory="No"
               MethodOID="MT.EX.EPOCH"
               Role="Timing"
               RoleCodeListOID="RLCT1"
               />
             <ItemRef ItemOID="IT.EX.EXSTDTC"
               OrderNumber="15"
               Mandatory="No"
               KeySequence="3"
               Role="Timing"
               RoleCodeListOID="RLCT1"
               />
             <ItemRef ItemOID="IT.EX.EXENDTC"
               OrderNumber="16"
               Mandatory="No"
               Role="Timing"
               RoleCodeListOID="RLCT1"
               />
             <ItemRef ItemOID="IT.EX.EXSTDY"
               OrderNumber="17"
               Mandatory="No"
               MethodOID="MT.EX.EXSTDY"
               Role="Timing"
               RoleCodeListOID="RLCT1"
               />
             <ItemRef ItemOID="IT.EX.EXENDY"
               OrderNumber="18"
               Mandatory="No"
               MethodOID="MT.EX.EXENDY"
               Role="Timing"
               RoleCodeListOID="RLCT1"
               />
           <def:leaf ID="Location.ex" xlink:href="./ex.xpt">
           <def:title>ex.xpt</def:title>
           </def:leaf>
         </ItemGroupDef>


         <!-- ** ItemGroupDef for: PR ** -->

         <ItemGroupDef OID="IG.PR"
           Domain="PR"
           Name="PR"
           Repeating="Yes"
           IsReferenceData="No"
           SASDatasetName="PR"
           Purpose="Tabulation"
           def:Structure="One record per recorded procedure per occurrence per subject"
           def:Class="INTERVENTIONS"
           def:ArchiveLocationID="Location.pr">
           <Description>
             <TranslatedText xml:lang="en">Procedures</TranslatedText>
           </Description>

             <ItemRef ItemOID="IT.PR.STUDYID"
               OrderNumber="1"
               Mandatory="Yes"
               KeySequence="1"
               Role="Identifier"
               RoleCodeListOID="RLCT1"
               />
             <ItemRef ItemOID="IT.PR.DOMAIN"
               OrderNumber="2"
               Mandatory="Yes"
               Role="Identifier"
               RoleCodeListOID="RLCT1"
               />
             <ItemRef ItemOID="IT.PR.USUBJID"
               OrderNumber="3"
               Mandatory="Yes"
               MethodOID="MT.PR.USUBJID"
               KeySequence="2"
               Role="Identifier"
               RoleCodeListOID="RLCT1"
               />
             <ItemRef ItemOID="IT.PR.PRSEQ"
               OrderNumber="4"
               Mandatory="Yes"
               MethodOID="MT.PR.PRSEQ"
               Role="Identifier"
               RoleCodeListOID="RLCT1"
               />
             <ItemRef ItemOID="IT.PR.PRSPID"
               OrderNumber="5"
               Mandatory="No"
               Role="Identifier"
               RoleCodeListOID="RLCT1"
               />
             <ItemRef ItemOID="IT.PR.PRTRT"
               OrderNumber="6"
               Mandatory="Yes"
               KeySequence="3"
               Role="Topic"
               RoleCodeListOID="RLCT1"
               />
             <ItemRef ItemOID="IT.PR.PRINDC"
               OrderNumber="7"
               Mandatory="No"
               Role="Record Qualifier"
               RoleCodeListOID="RLCT1"
               />
             <ItemRef ItemOID="IT.PR.EPOCH"
               OrderNumber="8"
               Mandatory="No"
               MethodOID="MT.PR.EPOCH"
               Role="Timing"
               RoleCodeListOID="RLCT1"
               />
             <ItemRef ItemOID="IT.PR.PRSTDTC"
               OrderNumber="9"
               Mandatory="No"
               KeySequence="4"
               Role="Timing"
               RoleCodeListOID="RLCT1"
               />
             <ItemRef ItemOID="IT.PR.PRENDTC"
               OrderNumber="10"
               Mandatory="No"
               Role="Timing"
               RoleCodeListOID="RLCT1"
               />
             <ItemRef ItemOID="IT.PR.PRSTDY"
               OrderNumber="11"
               Mandatory="No"
               MethodOID="MT.PR.PRSTDY"
               Role="Timing"
               RoleCodeListOID="RLCT1"
               />
             <ItemRef ItemOID="IT.PR.PRENDY"
               OrderNumber="12"
               Mandatory="No"
               MethodOID="MT.PR.PRENDY"
               Role="Timing"
               RoleCodeListOID="RLCT1"
               />
             <ItemRef ItemOID="IT.PR.PRENRTPT"
               OrderNumber="13"
               Mandatory="No"
               Role="Timing"
               RoleCodeListOID="RLCT1"
               />
             <ItemRef ItemOID="IT.PR.PRENTPT"
               OrderNumber="14"
               Mandatory="No"
               Role="Timing"
               RoleCodeListOID="RLCT1"
               />
           <def:leaf ID="Location.pr" xlink:href="./pr.xpt">
           <def:title>pr.xpt</def:title>
           </def:leaf>
         </ItemGroupDef>


         <!-- ** ItemGroupDef for: AE ** -->

         <ItemGroupDef OID="IG.AE"
           Domain="AE"
           Name="AE"
           Repeating="Yes"
           IsReferenceData="No"
           SASDatasetName="AE"
           Purpose="Tabulation"
           def:Structure="One record per adverse event per subject"
           def:Class="EVENTS"
           def:ArchiveLocationID="Location.ae">
           <Description>
             <TranslatedText xml:lang="en">Adverse Events</TranslatedText>
           </Description>

             <ItemRef ItemOID="IT.AE.STUDYID"
               OrderNumber="1"
               Mandatory="Yes"
               KeySequence="1"
               Role="Identifier"
               RoleCodeListOID="RLCT1"
               />
             <ItemRef ItemOID="IT.AE.DOMAIN"
               OrderNumber="2"
               Mandatory="Yes"
               Role="Identifier"
               RoleCodeListOID="RLCT1"
               />
             <ItemRef ItemOID="IT.AE.USUBJID"
               OrderNumber="3"
               Mandatory="Yes"
               MethodOID="MT.AE.USUBJID"
               KeySequence="2"
               Role="Identifier"
               RoleCodeListOID="RLCT1"
               />
             <ItemRef ItemOID="IT.AE.AESEQ"
               OrderNumber="4"
               Mandatory="Yes"
               MethodOID="MT.AE.AESEQ"
               Role="Identifier"
               RoleCodeListOID="RLCT1"
               />
             <ItemRef ItemOID="IT.AE.AEGRPID"
               OrderNumber="5"
               Mandatory="No"
               Role="Identifier"
               RoleCodeListOID="RLCT1"
               />
             <ItemRef ItemOID="IT.AE.AESPID"
               OrderNumber="6"
               Mandatory="No"
               Role="Identifier"
               RoleCodeListOID="RLCT1"
               />
             <ItemRef ItemOID="IT.AE.AETERM"
               OrderNumber="7"
               Mandatory="Yes"
               Role="Topic"
               RoleCodeListOID="RLCT1"
               />
             <ItemRef ItemOID="IT.AE.AELLT"
               OrderNumber="8"
               Mandatory="No"
               Role="Variable Qualifier"
               RoleCodeListOID="RLCT1"
               />
             <ItemRef ItemOID="IT.AE.AELLTCD"
               OrderNumber="9"
               Mandatory="No"
               Role="Variable Qualifier"
               RoleCodeListOID="RLCT1"
               />
             <ItemRef ItemOID="IT.AE.AEDECOD"
               OrderNumber="10"
               Mandatory="Yes"
               KeySequence="3"
               Role="Synonym Qualifier"
               RoleCodeListOID="RLCT1"
               />
             <ItemRef ItemOID="IT.AE.AEPTCD"
               OrderNumber="11"
               Mandatory="No"
               Role="Variable Qualifier"
               RoleCodeListOID="RLCT1"
               />
             <ItemRef ItemOID="IT.AE.AEHLT"
               OrderNumber="12"
               Mandatory="No"
               Role="Variable Qualifier"
               RoleCodeListOID="RLCT1"
               />
             <ItemRef ItemOID="IT.AE.AEHLTCD"
               OrderNumber="13"
               Mandatory="No"
               Role="Variable Qualifier"
               RoleCodeListOID="RLCT1"
               />
             <ItemRef ItemOID="IT.AE.AEHLGT"
               OrderNumber="14"
               Mandatory="No"
               Role="Variable Qualifier"
               RoleCodeListOID="RLCT1"
               />
             <ItemRef ItemOID="IT.AE.AEHLGTCD"
               OrderNumber="15"
               Mandatory="No"
               Role="Variable Qualifier"
               RoleCodeListOID="RLCT1"
               />
             <ItemRef ItemOID="IT.AE.AEBODSYS"
               OrderNumber="16"
               Mandatory="No"
               Role="Record Qualifier"
               RoleCodeListOID="RLCT1"
               />
             <ItemRef ItemOID="IT.AE.AEBDSYCD"
               OrderNumber="17"
               Mandatory="No"
               Role="Variable Qualifier"
               RoleCodeListOID="RLCT1"
               />
             <ItemRef ItemOID="IT.AE.AESOC"
               OrderNumber="18"
               Mandatory="No"
               Role="Variable Qualifier"
               RoleCodeListOID="RLCT1"
               />
             <ItemRef ItemOID="IT.AE.AESOCCD"
               OrderNumber="19"
               Mandatory="No"
               Role="Variable Qualifier"
               RoleCodeListOID="RLCT1"
               />
             <ItemRef ItemOID="IT.AE.AESER"
               OrderNumber="20"
               Mandatory="No"
               Role="Record Qualifier"
               RoleCodeListOID="RLCT1"
               />
             <ItemRef ItemOID="IT.AE.AEACN"
               OrderNumber="21"
               Mandatory="No"
               Role="Record Qualifier"
               RoleCodeListOID="RLCT1"
               />
             <ItemRef ItemOID="IT.AE.AEREL"
               OrderNumber="22"
               Mandatory="No"
               Role="Record Qualifier"
               RoleCodeListOID="RLCT1"
               />
             <ItemRef ItemOID="IT.AE.AEOUT"
               OrderNumber="23"
               Mandatory="No"
               Role="Record Qualifier"
               RoleCodeListOID="RLCT1"
               />
             <ItemRef ItemOID="IT.AE.AESCONG"
               OrderNumber="24"
               Mandatory="No"
               Role="Record Qualifier"
               RoleCodeListOID="RLCT1"
               />
             <ItemRef ItemOID="IT.AE.AESDISAB"
               OrderNumber="25"
               Mandatory="No"
               Role="Record Qualifier"
               RoleCodeListOID="RLCT1"
               />
             <ItemRef ItemOID="IT.AE.AESDTH"
               OrderNumber="26"
               Mandatory="No"
               Role="Record Qualifier"
               RoleCodeListOID="RLCT1"
               />
             <ItemRef ItemOID="IT.AE.AESHOSP"
               OrderNumber="27"
               Mandatory="No"
               Role="Record Qualifier"
               RoleCodeListOID="RLCT1"
               />
             <ItemRef ItemOID="IT.AE.AESLIFE"
               OrderNumber="28"
               Mandatory="No"
               Role="Record Qualifier"
               RoleCodeListOID="RLCT1"
               />
             <ItemRef ItemOID="IT.AE.AESMIE"
               OrderNumber="29"
               Mandatory="No"
               Role="Record Qualifier"
               RoleCodeListOID="RLCT1"
               />
             <ItemRef ItemOID="IT.AE.AECONTRT"
               OrderNumber="30"
               Mandatory="No"
               Role="Record Qualifier"
               RoleCodeListOID="RLCT1"
               />
             <ItemRef ItemOID="IT.AE.AETOXGR"
               OrderNumber="31"
               Mandatory="No"
               Role="Record Qualifier"
               RoleCodeListOID="RLCT1"
               />
             <ItemRef ItemOID="IT.AE.EPOCH"
               OrderNumber="32"
               Mandatory="No"
               MethodOID="MT.AE.EPOCH"
               Role="Timing"
               RoleCodeListOID="RLCT1"
               />
             <ItemRef ItemOID="IT.AE.AESTDTC"
               OrderNumber="33"
               Mandatory="No"
               KeySequence="4"
               Role="Timing"
               RoleCodeListOID="RLCT1"
               />
             <ItemRef ItemOID="IT.AE.AEENDTC"
               OrderNumber="34"
               Mandatory="No"
               Role="Timing"
               RoleCodeListOID="RLCT1"
               />
             <ItemRef ItemOID="IT.AE.AESTDY"
               OrderNumber="35"
               Mandatory="No"
               MethodOID="MT.AE.AESTDY"
               Role="Timing"
               RoleCodeListOID="RLCT1"
               />
             <ItemRef ItemOID="IT.AE.AEENDY"
               OrderNumber="36"
               Mandatory="No"
               MethodOID="MT.AE.AEENDY"
               Role="Timing"
               RoleCodeListOID="RLCT1"
               />
             <ItemRef ItemOID="IT.AE.AEENRTPT"
               OrderNumber="37"
               Mandatory="No"
               Role="Timing"
               RoleCodeListOID="RLCT1"
               />
             <ItemRef ItemOID="IT.AE.AEENTPT"
               OrderNumber="38"
               Mandatory="No"
               Role="Timing"
               RoleCodeListOID="RLCT1"
               />
           <def:leaf ID="Location.ae" xlink:href="./ae.xpt">
           <def:title>ae.xpt</def:title>
           </def:leaf>
         </ItemGroupDef>


         <!-- ** ItemGroupDef for: DS ** -->

         <ItemGroupDef OID="IG.DS"
           Domain="DS"
           Name="DS"
           Repeating="Yes"
           IsReferenceData="No"
           SASDatasetName="DS"
           Purpose="Tabulation"
           def:Structure="One record per disposition status or protocol milestone per subject"
           def:Class="EVENTS"
           def:ArchiveLocationID="Location.ds">
           <Description>
             <TranslatedText xml:lang="en">Disposition</TranslatedText>
           </Description>

             <ItemRef ItemOID="IT.DS.STUDYID"
               OrderNumber="1"
               Mandatory="Yes"
               KeySequence="1"
               Role="Identifier"
               RoleCodeListOID="RLCT1"
               />
             <ItemRef ItemOID="IT.DS.DOMAIN"
               OrderNumber="2"
               Mandatory="Yes"
               Role="Identifier"
               RoleCodeListOID="RLCT1"
               />
             <ItemRef ItemOID="IT.DS.USUBJID"
               OrderNumber="3"
               Mandatory="Yes"
               MethodOID="MT.DS.USUBJID"
               KeySequence="2"
               Role="Identifier"
               RoleCodeListOID="RLCT1"
               />
             <ItemRef ItemOID="IT.DS.DSSEQ"
               OrderNumber="4"
               Mandatory="Yes"
               MethodOID="MT.DS.DSSEQ"
               Role="Identifier"
               RoleCodeListOID="RLCT1"
               />
             <ItemRef ItemOID="IT.DS.DSSPID"
               OrderNumber="5"
               Mandatory="No"
               KeySequence="4"
               Role="Identifier"
               RoleCodeListOID="RLCT1"
               />
             <ItemRef ItemOID="IT.DS.DSTERM"
               OrderNumber="6"
               Mandatory="Yes"
               Role="Topic"
               RoleCodeListOID="RLCT1"
               />
             <ItemRef ItemOID="IT.DS.DSDECOD"
               OrderNumber="7"
               Mandatory="Yes"
               KeySequence="5"
               Role="Synonym Qualifier"
               RoleCodeListOID="RLCT1"
               />
             <ItemRef ItemOID="IT.DS.DSCAT"
               OrderNumber="8"
               Mandatory="No"
               Role="Grouping Qualifier"
               RoleCodeListOID="RLCT1"
               />
             <ItemRef ItemOID="IT.DS.DSSCAT"
               OrderNumber="9"
               Mandatory="No"
               Role="Grouping Qualifier"
               RoleCodeListOID="RLCT1"
               />
             <ItemRef ItemOID="IT.DS.EPOCH"
               OrderNumber="10"
               Mandatory="No"
               MethodOID="MT.DS.EPOCH"
               Role="Timing"
               RoleCodeListOID="RLCT1"
               />
             <ItemRef ItemOID="IT.DS.DSSTDTC"
               OrderNumber="11"
               Mandatory="No"
               KeySequence="3"
               Role="Timing"
               RoleCodeListOID="RLCT1"
               />
             <ItemRef ItemOID="IT.DS.DSSTDY"
               OrderNumber="12"
               Mandatory="No"
               MethodOID="MT.DS.DSSTDY"
               Role="Timing"
               RoleCodeListOID="RLCT1"
               />
           <def:leaf ID="Location.ds" xlink:href="./ds.xpt">
           <def:title>ds.xpt</def:title>
           </def:leaf>
         </ItemGroupDef>


         <!-- ** ItemGroupDef for: DV ** -->

         <ItemGroupDef OID="IG.DV"
           Domain="DV"
           Name="DV"
           Repeating="No"
           IsReferenceData="No"
           SASDatasetName="DV"
           Purpose="Tabulation"
           def:Structure="One record per protocol deviation per subject"
           def:Class="EVENTS"
           def:ArchiveLocationID="Location.dv">
           <Description>
             <TranslatedText xml:lang="en">Protocol Deviations</TranslatedText>
           </Description>

             <ItemRef ItemOID="IT.DV.STUDYID"
               OrderNumber="1"
               Mandatory="Yes"
               KeySequence="1"
               Role="Identifier"
               RoleCodeListOID="RLCT1"
               />
             <ItemRef ItemOID="IT.DV.DOMAIN"
               OrderNumber="2"
               Mandatory="Yes"
               Role="Identifier"
               RoleCodeListOID="RLCT1"
               />
             <ItemRef ItemOID="IT.DV.USUBJID"
               OrderNumber="3"
               Mandatory="Yes"
               MethodOID="MT.DV.USUBJID"
               KeySequence="2"
               Role="Identifier"
               RoleCodeListOID="RLCT1"
               />
             <ItemRef ItemOID="IT.DV.DVSEQ"
               OrderNumber="4"
               Mandatory="Yes"
               MethodOID="MT.DV.DVSEQ"
               Role="Identifier"
               RoleCodeListOID="RLCT1"
               />
             <ItemRef ItemOID="IT.DV.DVSPID"
               OrderNumber="5"
               Mandatory="No"
               KeySequence="4"
               Role="Identifier"
               RoleCodeListOID="RLCT1"
               />
             <ItemRef ItemOID="IT.DV.DVTERM"
               OrderNumber="6"
               Mandatory="Yes"
               KeySequence="3"
               Role="Topic"
               RoleCodeListOID="RLCT1"
               />
             <ItemRef ItemOID="IT.DV.DVDECOD"
               OrderNumber="7"
               Mandatory="No"
               Role="Synonym Qualifier"
               RoleCodeListOID="RLCT1"
               />
             <ItemRef ItemOID="IT.DV.EPOCH"
               OrderNumber="8"
               Mandatory="No"
               Role="Timing"
               RoleCodeListOID="RLCT1"
               />
             <ItemRef ItemOID="IT.DV.DVSTDTC"
               OrderNumber="9"
               Mandatory="No"
               Role="Timing"
               RoleCodeListOID="RLCT1"
               />
             <ItemRef ItemOID="IT.DV.DVSTDY"
               OrderNumber="10"
               Mandatory="No"
               MethodOID="MT.DV.DVSTDY"
               Role="Timing"
               RoleCodeListOID="RLCT1"
               />
           <def:leaf ID="Location.dv" xlink:href="./dv.xpt">
           <def:title>dv.xpt</def:title>
           </def:leaf>
         </ItemGroupDef>


         <!-- ** ItemGroupDef for: MH ** -->

         <ItemGroupDef OID="IG.MH"
           Domain="MH"
           Name="MH"
           Repeating="Yes"
           IsReferenceData="No"
           SASDatasetName="MH"
           Purpose="Tabulation"
           def:Structure="One record per medical history event per subject"
           def:Class="EVENTS"
           def:ArchiveLocationID="Location.mh">
           <Description>
             <TranslatedText xml:lang="en">Medical History</TranslatedText>
           </Description>

             <ItemRef ItemOID="IT.MH.STUDYID"
               OrderNumber="1"
               Mandatory="Yes"
               KeySequence="1"
               Role="Identifier"
               RoleCodeListOID="RLCT1"
               />
             <ItemRef ItemOID="IT.MH.DOMAIN"
               OrderNumber="2"
               Mandatory="Yes"
               Role="Identifier"
               RoleCodeListOID="RLCT1"
               />
             <ItemRef ItemOID="IT.MH.USUBJID"
               OrderNumber="3"
               Mandatory="Yes"
               MethodOID="MT.MH.USUBJID"
               KeySequence="2"
               Role="Identifier"
               RoleCodeListOID="RLCT1"
               />
             <ItemRef ItemOID="IT.MH.MHSEQ"
               OrderNumber="4"
               Mandatory="Yes"
               MethodOID="MT.MH.MHSEQ"
               Role="Identifier"
               RoleCodeListOID="RLCT1"
               />
             <ItemRef ItemOID="IT.MH.MHSPID"
               OrderNumber="5"
               Mandatory="No"
               Role="Identifier"
               RoleCodeListOID="RLCT1"
               />
             <ItemRef ItemOID="IT.MH.MHTERM"
               OrderNumber="6"
               Mandatory="Yes"
               Role="Topic"
               RoleCodeListOID="RLCT1"
               />
             <ItemRef ItemOID="IT.MH.MHLLT"
               OrderNumber="7"
               Mandatory="No"
               RoleCodeListOID="RLCT1"
               />
             <ItemRef ItemOID="IT.MH.MHLLTCD"
               OrderNumber="8"
               Mandatory="No"
               RoleCodeListOID="RLCT1"
               />
             <ItemRef ItemOID="IT.MH.MHDECOD"
               OrderNumber="9"
               Mandatory="No"
               KeySequence="3"
               Role="Synonym Qualifier"
               RoleCodeListOID="RLCT1"
               />
             <ItemRef ItemOID="IT.MH.MHPTCD"
               OrderNumber="10"
               Mandatory="No"
               RoleCodeListOID="RLCT1"
               />
             <ItemRef ItemOID="IT.MH.MHHLT"
               OrderNumber="11"
               Mandatory="No"
               RoleCodeListOID="RLCT1"
               />
             <ItemRef ItemOID="IT.MH.MHHLTCD"
               OrderNumber="12"
               Mandatory="No"
               RoleCodeListOID="RLCT1"
               />
             <ItemRef ItemOID="IT.MH.MHHLGT"
               OrderNumber="13"
               Mandatory="No"
               RoleCodeListOID="RLCT1"
               />
             <ItemRef ItemOID="IT.MH.MHHLGTCD"
               OrderNumber="14"
               Mandatory="No"
               RoleCodeListOID="RLCT1"
               />
             <ItemRef ItemOID="IT.MH.MHBODSYS"
               OrderNumber="15"
               Mandatory="No"
               Role="Record Qualifier"
               RoleCodeListOID="RLCT1"
               />
             <ItemRef ItemOID="IT.MH.MHBDSYCD"
               OrderNumber="16"
               Mandatory="No"
               RoleCodeListOID="RLCT1"
               />
             <ItemRef ItemOID="IT.MH.EPOCH"
               OrderNumber="17"
               Mandatory="No"
               Role="Timing"
               RoleCodeListOID="RLCT1"
               />
             <ItemRef ItemOID="IT.MH.MHSTDTC"
               OrderNumber="18"
               Mandatory="No"
               Role="Timing"
               RoleCodeListOID="RLCT1"
               />
             <ItemRef ItemOID="IT.MH.MHENDTC"
               OrderNumber="19"
               Mandatory="No"
               Role="Timing"
               RoleCodeListOID="RLCT1"
               />
             <ItemRef ItemOID="IT.MH.MHSTDY"
               OrderNumber="20"
               Mandatory="No"
               MethodOID="MT.MH.MHSTDY"
               RoleCodeListOID="RLCT1"
               />
             <ItemRef ItemOID="IT.MH.MHENDY"
               OrderNumber="21"
               Mandatory="No"
               MethodOID="MT.MH.MHENDY"
               RoleCodeListOID="RLCT1"
               />
             <ItemRef ItemOID="IT.MH.MHENRTPT"
               OrderNumber="22"
               Mandatory="No"
               Role="Timing"
               RoleCodeListOID="RLCT1"
               />
             <ItemRef ItemOID="IT.MH.MHENTPT"
               OrderNumber="23"
               Mandatory="No"
               Role="Timing"
               RoleCodeListOID="RLCT1"
               />
           <def:leaf ID="Location.mh" xlink:href="./mh.xpt">
           <def:title>mh.xpt</def:title>
           </def:leaf>
         </ItemGroupDef>


         <!-- ** ItemGroupDef for: EG ** -->

         <ItemGroupDef OID="IG.EG"
           Domain="EG"
           Name="EG"
           Repeating="Yes"
           IsReferenceData="No"
           SASDatasetName="EG"
           Purpose="Tabulation"
           def:Structure="One record per ECG observation per time point per visit per subject"
           def:Class="FINDINGS"
           def:ArchiveLocationID="Location.eg">
           <Description>
             <TranslatedText xml:lang="en">ECG Test Results</TranslatedText>
           </Description>

             <ItemRef ItemOID="IT.EG.STUDYID"
               OrderNumber="1"
               Mandatory="Yes"
               KeySequence="1"
               Role="Identifier"
               RoleCodeListOID="RLCT1"
               />
             <ItemRef ItemOID="IT.EG.DOMAIN"
               OrderNumber="2"
               Mandatory="Yes"
               Role="Identifier"
               RoleCodeListOID="RLCT1"
               />
             <ItemRef ItemOID="IT.EG.USUBJID"
               OrderNumber="3"
               Mandatory="Yes"
               MethodOID="MT.EG.USUBJID"
               KeySequence="2"
               Role="Identifier"
               RoleCodeListOID="RLCT1"
               />
             <ItemRef ItemOID="IT.EG.EGSEQ"
               OrderNumber="4"
               Mandatory="Yes"
               MethodOID="MT.EG.EGSEQ"
               Role="Identifier"
               RoleCodeListOID="RLCT1"
               />
             <ItemRef ItemOID="IT.EG.EGSPID"
               OrderNumber="5"
               Mandatory="No"
               Role="Identifier"
               RoleCodeListOID="RLCT1"
               />
             <ItemRef ItemOID="IT.EG.EGTESTCD"
               OrderNumber="6"
               Mandatory="Yes"
               KeySequence="3"
               Role="Topic"
               RoleCodeListOID="RLCT1"
               />
             <ItemRef ItemOID="IT.EG.EGTEST"
               OrderNumber="7"
               Mandatory="Yes"
               Role="Synonym Qualifier"
               RoleCodeListOID="RLCT1"
               />
             <ItemRef ItemOID="IT.EG.EGPOS"
               OrderNumber="8"
               Mandatory="No"
               Role="Record Qualifier"
               RoleCodeListOID="RLCT1"
               />
             <ItemRef ItemOID="IT.EG.EGORRES"
               OrderNumber="9"
               Mandatory="No"
               Role="Result Qualifier"
               RoleCodeListOID="RLCT1"
               />
             <ItemRef ItemOID="IT.EG.EGORRESU"
               OrderNumber="10"
               Mandatory="No"
               Role="Variable Qualifier"
               RoleCodeListOID="RLCT1"
               />
             <ItemRef ItemOID="IT.EG.EGSTRESC"
               OrderNumber="11"
               Mandatory="No"
               MethodOID="MT.EG.EGSTRESC"
               Role="Result Qualifier"
               RoleCodeListOID="RLCT1"
               />
             <ItemRef ItemOID="IT.EG.EGSTRESN"
               OrderNumber="12"
               Mandatory="No"
               MethodOID="MT.EG.EGSTRESN"
               Role="Result Qualifier"
               RoleCodeListOID="RLCT1"
               />
             <ItemRef ItemOID="IT.EG.EGSTRESU"
               OrderNumber="13"
               Mandatory="No"
               MethodOID="MT.EG.EGSTRESU"
               Role="Variable Qualifier"
               RoleCodeListOID="RLCT1"
               />
             <ItemRef ItemOID="IT.EG.EGSTAT"
               OrderNumber="14"
               Mandatory="No"
               Role="Record Qualifier"
               RoleCodeListOID="RLCT1"
               />
             <ItemRef ItemOID="IT.EG.EGMETHOD"
               OrderNumber="15"
               Mandatory="No"
               Role="Record Qualifier"
               RoleCodeListOID="RLCT1"
               />
             <ItemRef ItemOID="IT.EG.EGBLFL"
               OrderNumber="16"
               Mandatory="No"
               MethodOID="MT.EG.EGBLFL"
               Role="Record Qualifier"
               RoleCodeListOID="RLCT1"
               />
             <ItemRef ItemOID="IT.EG.VISITNUM"
               OrderNumber="17"
               Mandatory="No"
               KeySequence="4"
               Role="Timing"
               RoleCodeListOID="RLCT1"
               />
             <ItemRef ItemOID="IT.EG.VISIT"
               OrderNumber="18"
               Mandatory="No"
               Role="Timing"
               RoleCodeListOID="RLCT1"
               />
             <ItemRef ItemOID="IT.EG.VISITDY"
               OrderNumber="19"
               Mandatory="No"
               Role="Timing"
               RoleCodeListOID="RLCT1"
               />
             <ItemRef ItemOID="IT.EG.EPOCH"
               OrderNumber="20"
               Mandatory="No"
               MethodOID="MT.EG.EPOCH"
               Role="Timing"
               RoleCodeListOID="RLCT1"
               />
             <ItemRef ItemOID="IT.EG.EGDTC"
               OrderNumber="21"
               Mandatory="No"
               Role="Timing"
               RoleCodeListOID="RLCT1"
               />
             <ItemRef ItemOID="IT.EG.EGDY"
               OrderNumber="22"
               Mandatory="No"
               MethodOID="MT.EG.EGDY"
               Role="Timing"
               RoleCodeListOID="RLCT1"
               />
             <ItemRef ItemOID="IT.EG.EGTPT"
               OrderNumber="23"
               Mandatory="No"
               Role="Timing"
               RoleCodeListOID="RLCT1"
               />
             <ItemRef ItemOID="IT.EG.EGTPTNUM"
               OrderNumber="24"
               Mandatory="No"
               KeySequence="6"
               Role="Timing"
               RoleCodeListOID="RLCT1"
               />
             <ItemRef ItemOID="IT.EG.EGELTM"
               OrderNumber="25"
               Mandatory="No"
               Role="Timing"
               RoleCodeListOID="RLCT1"
               />
             <ItemRef ItemOID="IT.EG.EGTPTREF"
               OrderNumber="26"
               Mandatory="No"
               KeySequence="5"
               Role="Timing"
               RoleCodeListOID="RLCT1"
               />
             <ItemRef ItemOID="IT.EG.EGRFTDTC"
               OrderNumber="27"
               Mandatory="No"
               Role="Timing"
               RoleCodeListOID="RLCT1"
               />
           <def:leaf ID="Location.eg" xlink:href="./eg.xpt">
           <def:title>eg.xpt</def:title>
           </def:leaf>
         </ItemGroupDef>


         <!-- ** ItemGroupDef for: IE ** -->

         <ItemGroupDef OID="IG.IE"
           Domain="IE"
           Name="IE"
           Repeating="Yes"
           IsReferenceData="No"
           SASDatasetName="IE"
           Purpose="Tabulation"
           def:Structure="One record per inclusion/exclusion criterion not met per subject"
           def:Class="FINDINGS"
           def:ArchiveLocationID="Location.ie">
           <Description>
             <TranslatedText xml:lang="en">Inclusion/Exclusion Criteria Not Met</TranslatedText>
           </Description>

             <ItemRef ItemOID="IT.IE.STUDYID"
               OrderNumber="1"
               Mandatory="Yes"
               KeySequence="1"
               Role="Identifier"
               RoleCodeListOID="RLCT1"
               />
             <ItemRef ItemOID="IT.IE.DOMAIN"
               OrderNumber="2"
               Mandatory="Yes"
               Role="Identifier"
               RoleCodeListOID="RLCT1"
               />
             <ItemRef ItemOID="IT.IE.USUBJID"
               OrderNumber="3"
               Mandatory="Yes"
               MethodOID="MT.IE.USUBJID"
               KeySequence="2"
               Role="Identifier"
               RoleCodeListOID="RLCT1"
               />
             <ItemRef ItemOID="IT.IE.IESEQ"
               OrderNumber="4"
               Mandatory="Yes"
               MethodOID="MT.IE.IESEQ"
               Role="Identifier"
               RoleCodeListOID="RLCT1"
               />
             <ItemRef ItemOID="IT.IE.IETESTCD"
               OrderNumber="5"
               Mandatory="Yes"
               KeySequence="3"
               Role="Topic"
               RoleCodeListOID="RLCT1"
               />
             <ItemRef ItemOID="IT.IE.IETEST"
               OrderNumber="6"
               Mandatory="Yes"
               Role="Synonym Qualifier"
               RoleCodeListOID="RLCT1"
               />
             <ItemRef ItemOID="IT.IE.IECAT"
               OrderNumber="7"
               Mandatory="Yes"
               Role="Grouping Qualifier"
               RoleCodeListOID="RLCT1"
               />
             <ItemRef ItemOID="IT.IE.IEORRES"
               OrderNumber="8"
               Mandatory="Yes"
               Role="Result Qualifier"
               RoleCodeListOID="RLCT1"
               />
             <ItemRef ItemOID="IT.IE.IESTRESC"
               OrderNumber="9"
               Mandatory="Yes"
               MethodOID="MT.IE.IESTRESC"
               Role="Result Qualifier"
               RoleCodeListOID="RLCT1"
               />
             <ItemRef ItemOID="IT.IE.EPOCH"
               OrderNumber="10"
               Mandatory="No"
               Role="Timing"
               RoleCodeListOID="RLCT1"
               />
           <def:leaf ID="Location.ie" xlink:href="./ie.xpt">
           <def:title>ie.xpt</def:title>
           </def:leaf>
         </ItemGroupDef>


         <!-- ** ItemGroupDef for: LB ** -->

         <ItemGroupDef OID="IG.LB"
           Domain="LB"
           Name="LB"
           Repeating="Yes"
           IsReferenceData="No"
           SASDatasetName="LB"
           Purpose="Tabulation"
           def:Structure="One record per analyte per planned time point number per time point reference per visit per subject"
           def:Class="FINDINGS"
           def:ArchiveLocationID="Location.lb">
           <Description>
             <TranslatedText xml:lang="en">Laboratory Test Results</TranslatedText>
           </Description>

             <ItemRef ItemOID="IT.LB.STUDYID"
               OrderNumber="1"
               Mandatory="Yes"
               KeySequence="1"
               Role="Identifier"
               RoleCodeListOID="RLCT1"
               />
             <ItemRef ItemOID="IT.LB.DOMAIN"
               OrderNumber="2"
               Mandatory="Yes"
               Role="Identifier"
               RoleCodeListOID="RLCT1"
               />
             <ItemRef ItemOID="IT.LB.USUBJID"
               OrderNumber="3"
               Mandatory="Yes"
               MethodOID="MT.LB.USUBJID"
               KeySequence="2"
               Role="Identifier"
               RoleCodeListOID="RLCT1"
               />
             <ItemRef ItemOID="IT.LB.LBSEQ"
               OrderNumber="4"
               Mandatory="Yes"
               MethodOID="MT.LB.LBSEQ"
               Role="Identifier"
               RoleCodeListOID="RLCT1"
               />
             <ItemRef ItemOID="IT.LB.LBSPID"
               OrderNumber="5"
               Mandatory="No"
               Role="Identifier"
               RoleCodeListOID="RLCT1"
               />
             <ItemRef ItemOID="IT.LB.LBTESTCD"
               OrderNumber="6"
               Mandatory="Yes"
               KeySequence="5"
               Role="Topic"
               RoleCodeListOID="RLCT1"
               />
             <ItemRef ItemOID="IT.LB.LBTEST"
               OrderNumber="7"
               Mandatory="Yes"
               Role="Synonym Qualifier"
               RoleCodeListOID="RLCT1"
               />
             <ItemRef ItemOID="IT.LB.LBCAT"
               OrderNumber="8"
               Mandatory="No"
               KeySequence="3"
               Role="Grouping Qualifier"
               RoleCodeListOID="RLCT1"
               />
             <ItemRef ItemOID="IT.LB.LBSCAT"
               OrderNumber="9"
               Mandatory="No"
               KeySequence="4"
               Role="Grouping Qualifier"
               RoleCodeListOID="RLCT1"
               />
             <ItemRef ItemOID="IT.LB.LBORRES"
               OrderNumber="10"
               Mandatory="No"
               Role="Result Qualifier"
               RoleCodeListOID="RLCT1"
               />
             <ItemRef ItemOID="IT.LB.LBORRESU"
               OrderNumber="11"
               Mandatory="No"
               Role="Variable Qualifier"
               RoleCodeListOID="RLCT1"
               />
             <ItemRef ItemOID="IT.LB.LBORNRLO"
               OrderNumber="12"
               Mandatory="No"
               Role="Variable Qualifier"
               RoleCodeListOID="RLCT1"
               />
             <ItemRef ItemOID="IT.LB.LBORNRHI"
               OrderNumber="13"
               Mandatory="No"
               Role="Variable Qualifier"
               RoleCodeListOID="RLCT1"
               />
             <ItemRef ItemOID="IT.LB.LBSTRESC"
               OrderNumber="14"
               Mandatory="No"
               MethodOID="MT.LB.LBSTRESC"
               Role="Result Qualifier"
               RoleCodeListOID="RLCT1"
               />
             <ItemRef ItemOID="IT.LB.LBSTRESN"
               OrderNumber="15"
               Mandatory="No"
               MethodOID="MT.LB.LBSTRESN"
               Role="Result Qualifier"
               RoleCodeListOID="RLCT1"
               />
             <ItemRef ItemOID="IT.LB.LBSTRESU"
               OrderNumber="16"
               Mandatory="No"
               Role="Variable Qualifier"
               RoleCodeListOID="RLCT1"
               />
             <ItemRef ItemOID="IT.LB.LBSTNRLO"
               OrderNumber="17"
               Mandatory="No"
               MethodOID="MT.LB.LBSTNRLO"
               Role="Variable Qualifier"
               RoleCodeListOID="RLCT1"
               />
             <ItemRef ItemOID="IT.LB.LBSTNRHI"
               OrderNumber="18"
               Mandatory="No"
               MethodOID="MT.LB.LBSTNRHI"
               Role="Variable Qualifier"
               RoleCodeListOID="RLCT1"
               />
             <ItemRef ItemOID="IT.LB.LBSTNRC"
               OrderNumber="19"
               Mandatory="No"
               Role="Variable Qualifier"
               RoleCodeListOID="RLCT1"
               />
             <ItemRef ItemOID="IT.LB.LBNRIND"
               OrderNumber="20"
               Mandatory="No"
               MethodOID="MT.LB.LBNRIND"
               Role="Variable Qualifier"
               RoleCodeListOID="RLCT1"
               />
             <ItemRef ItemOID="IT.LB.LBSTAT"
               OrderNumber="21"
               Mandatory="No"
               Role="Record Qualifier"
               RoleCodeListOID="RLCT1"
               />
             <ItemRef ItemOID="IT.LB.LBSPEC"
               OrderNumber="22"
               Mandatory="No"
               KeySequence="6"
               Role="Record Qualifier"
               RoleCodeListOID="RLCT1"
               />
             <ItemRef ItemOID="IT.LB.LBMETHOD"
               OrderNumber="23"
               Mandatory="No"
               Role="Record Qualifier"
               RoleCodeListOID="RLCT1"
               />
             <ItemRef ItemOID="IT.LB.LBBLFL"
               OrderNumber="24"
               Mandatory="No"
               MethodOID="MT.LB.LBBLFL"
               Role="Record Qualifier"
               RoleCodeListOID="RLCT1"
               />
             <ItemRef ItemOID="IT.LB.LBDRVFL"
               OrderNumber="25"
               Mandatory="No"
               Role="Record Qualifier"
               RoleCodeListOID="RLCT1"
               />
             <ItemRef ItemOID="IT.LB.LBTOX"
               OrderNumber="26"
               Mandatory="No"
               Role="Variable Qualifier"
               RoleCodeListOID="RLCT1"
               />
             <ItemRef ItemOID="IT.LB.LBTOXGR"
               OrderNumber="27"
               Mandatory="No"
               Role="Variable Qualifier"
               RoleCodeListOID="RLCT1"
               />
             <ItemRef ItemOID="IT.LB.VISITNUM"
               OrderNumber="28"
               Mandatory="No"
               KeySequence="7"
               Role="Timing"
               RoleCodeListOID="RLCT1"
               />
             <ItemRef ItemOID="IT.LB.VISIT"
               OrderNumber="29"
               Mandatory="No"
               Role="Timing"
               RoleCodeListOID="RLCT1"
               />
             <ItemRef ItemOID="IT.LB.VISITDY"
               OrderNumber="30"
               Mandatory="No"
               Role="Timing"
               RoleCodeListOID="RLCT1"
               />
             <ItemRef ItemOID="IT.LB.EPOCH"
               OrderNumber="31"
               Mandatory="No"
               MethodOID="MT.LB.EPOCH"
               Role="Timing"
               RoleCodeListOID="RLCT1"
               />
             <ItemRef ItemOID="IT.LB.LBDTC"
               OrderNumber="32"
               Mandatory="No"
               KeySequence="10"
               Role="Timing"
               RoleCodeListOID="RLCT1"
               />
             <ItemRef ItemOID="IT.LB.LBDY"
               OrderNumber="33"
               Mandatory="No"
               MethodOID="MT.LB.LBDY"
               Role="Timing"
               RoleCodeListOID="RLCT1"
               />
             <ItemRef ItemOID="IT.LB.LBTPT"
               OrderNumber="34"
               Mandatory="No"
               Role="Timing"
               RoleCodeListOID="RLCT1"
               />
             <ItemRef ItemOID="IT.LB.LBTPTNUM"
               OrderNumber="35"
               Mandatory="No"
               KeySequence="9"
               Role="Timing"
               RoleCodeListOID="RLCT1"
               />
             <ItemRef ItemOID="IT.LB.LBELTM"
               OrderNumber="36"
               Mandatory="No"
               Role="Timing"
               RoleCodeListOID="RLCT1"
               />
             <ItemRef ItemOID="IT.LB.LBTPTREF"
               OrderNumber="37"
               Mandatory="No"
               KeySequence="8"
               Role="Timing"
               RoleCodeListOID="RLCT1"
               />
             <ItemRef ItemOID="IT.LB.LBRFTDTC"
               OrderNumber="38"
               Mandatory="No"
               Role="Timing"
               RoleCodeListOID="RLCT1"
               />
           <def:leaf ID="Location.lb" xlink:href="./lb.xpt">
           <def:title>lb.xpt</def:title>
           </def:leaf>
         </ItemGroupDef>


         <!-- ** ItemGroupDef for: PC ** -->

         <ItemGroupDef OID="IG.PC"
           Domain="PC"
           Name="PC"
           Repeating="Yes"
           IsReferenceData="No"
           SASDatasetName="PC"
           Purpose="Tabulation"
           def:Structure="One record per analyte per planned time point number per time point reference per visit per subject"
           def:Class="FINDINGS"
           def:ArchiveLocationID="Location.pc">
           <Description>
             <TranslatedText xml:lang="en">Pharmacokinetics Concentrations</TranslatedText>
           </Description>

             <ItemRef ItemOID="IT.PC.STUDYID"
               OrderNumber="1"
               Mandatory="Yes"
               KeySequence="1"
               Role="Identifier"
               RoleCodeListOID="RLCT1"
               />
             <ItemRef ItemOID="IT.PC.DOMAIN"
               OrderNumber="2"
               Mandatory="Yes"
               Role="Identifier"
               RoleCodeListOID="RLCT1"
               />
             <ItemRef ItemOID="IT.PC.USUBJID"
               OrderNumber="3"
               Mandatory="Yes"
               MethodOID="MT.PC.USUBJID"
               KeySequence="2"
               Role="Identifier"
               RoleCodeListOID="RLCT1"
               />
             <ItemRef ItemOID="IT.PC.PCSEQ"
               OrderNumber="4"
               Mandatory="Yes"
               MethodOID="MT.PC.PCSEQ"
               Role="Identifier"
               RoleCodeListOID="RLCT1"
               />
             <ItemRef ItemOID="IT.PC.PCGRPID"
               OrderNumber="5"
               Mandatory="No"
               Role="Identifier"
               RoleCodeListOID="RLCT1"
               />
             <ItemRef ItemOID="IT.PC.PCSPID"
               OrderNumber="6"
               Mandatory="No"
               Role="Identifier"
               RoleCodeListOID="RLCT1"
               />
             <ItemRef ItemOID="IT.PC.PCTESTCD"
               OrderNumber="7"
               Mandatory="Yes"
               KeySequence="3"
               Role="Topic"
               RoleCodeListOID="RLCT1"
               />
             <ItemRef ItemOID="IT.PC.PCTEST"
               OrderNumber="8"
               Mandatory="Yes"
               Role="Synonym Qualifier"
               RoleCodeListOID="RLCT1"
               />
             <ItemRef ItemOID="IT.PC.PCORRES"
               OrderNumber="9"
               Mandatory="No"
               Role="Result Qualifier"
               RoleCodeListOID="RLCT1"
               />
             <ItemRef ItemOID="IT.PC.PCORRESU"
               OrderNumber="10"
               Mandatory="No"
               Role="Variable Qualifier"
               RoleCodeListOID="RLCT1"
               />
             <ItemRef ItemOID="IT.PC.PCSTRESC"
               OrderNumber="11"
               Mandatory="No"
               MethodOID="MT.PC.PCSTRESC"
               Role="Result Qualifier"
               RoleCodeListOID="RLCT1"
               />
             <ItemRef ItemOID="IT.PC.PCSTRESN"
               OrderNumber="12"
               Mandatory="No"
               MethodOID="MT.PC.PCSTRESN"
               Role="Result Qualifier"
               RoleCodeListOID="RLCT1"
               />
             <ItemRef ItemOID="IT.PC.PCSTRESU"
               OrderNumber="13"
               Mandatory="No"
               MethodOID="MT.PC.PCSTRESU"
               Role="Variable Qualifier"
               RoleCodeListOID="RLCT1"
               />
             <ItemRef ItemOID="IT.PC.PCSTAT"
               OrderNumber="14"
               Mandatory="No"
               Role="Record Qualifier"
               RoleCodeListOID="RLCT1"
               />
             <ItemRef ItemOID="IT.PC.PCREASND"
               OrderNumber="15"
               Mandatory="No"
               Role="Record Qualifier"
               RoleCodeListOID="RLCT1"
               />
             <ItemRef ItemOID="IT.PC.PCNAM"
               OrderNumber="16"
               Mandatory="No"
               Role="Record Qualifier"
               RoleCodeListOID="RLCT1"
               />
             <ItemRef ItemOID="IT.PC.PCSPEC"
               OrderNumber="17"
               Mandatory="No"
               Role="Record Qualifier"
               RoleCodeListOID="RLCT1"
               />
             <ItemRef ItemOID="IT.PC.PCSPCCND"
               OrderNumber="18"
               Mandatory="No"
               Role="Record Qualifier"
               RoleCodeListOID="RLCT1"
               />
             <ItemRef ItemOID="IT.PC.PCBLFL"
               OrderNumber="19"
               Mandatory="No"
               MethodOID="MT.PC.PCBLFL"
               Role="Record Qualifier"
               RoleCodeListOID="RLCT1"
               />
             <ItemRef ItemOID="IT.PC.PCLLOQ"
               OrderNumber="20"
               Mandatory="No"
               Role="Variable Qualifier"
               RoleCodeListOID="RLCT1"
               />
             <ItemRef ItemOID="IT.PC.VISITNUM"
               OrderNumber="21"
               Mandatory="No"
               KeySequence="4"
               Role="Timing"
               RoleCodeListOID="RLCT1"
               />
             <ItemRef ItemOID="IT.PC.VISIT"
               OrderNumber="22"
               Mandatory="No"
               Role="Timing"
               RoleCodeListOID="RLCT1"
               />
             <ItemRef ItemOID="IT.PC.VISITDY"
               OrderNumber="23"
               Mandatory="No"
               Role="Timing"
               RoleCodeListOID="RLCT1"
               />
             <ItemRef ItemOID="IT.PC.EPOCH"
               OrderNumber="24"
               Mandatory="No"
               MethodOID="MT.PC.EPOCH"
               Role="Timing"
               RoleCodeListOID="RLCT1"
               />
             <ItemRef ItemOID="IT.PC.PCDTC"
               OrderNumber="25"
               Mandatory="No"
               Role="Timing"
               RoleCodeListOID="RLCT1"
               />
             <ItemRef ItemOID="IT.PC.PCDY"
               OrderNumber="26"
               Mandatory="No"
               MethodOID="MT.PC.PCDY"
               Role="Timing"
               RoleCodeListOID="RLCT1"
               />
             <ItemRef ItemOID="IT.PC.PCTPT"
               OrderNumber="27"
               Mandatory="No"
               Role="Timing"
               RoleCodeListOID="RLCT1"
               />
             <ItemRef ItemOID="IT.PC.PCTPTNUM"
               OrderNumber="28"
               Mandatory="No"
               KeySequence="6"
               Role="Timing"
               RoleCodeListOID="RLCT1"
               />
             <ItemRef ItemOID="IT.PC.PCELTM"
               OrderNumber="29"
               Mandatory="No"
               Role="Timing"
               RoleCodeListOID="RLCT1"
               />
             <ItemRef ItemOID="IT.PC.PCTPTREF"
               OrderNumber="30"
               Mandatory="No"
               KeySequence="5"
               Role="Timing"
               RoleCodeListOID="RLCT1"
               />
             <ItemRef ItemOID="IT.PC.PCRFTDTC"
               OrderNumber="31"
               Mandatory="No"
               Role="Timing"
               RoleCodeListOID="RLCT1"
               />
           <def:leaf ID="Location.pc" xlink:href="./pc.xpt">
           <def:title>pc.xpt</def:title>
           </def:leaf>
         </ItemGroupDef>


         <!-- ** ItemGroupDef for: PP ** -->

         <ItemGroupDef OID="IG.PP"
           Domain="PP"
           Name="PP"
           Repeating="Yes"
           IsReferenceData="No"
           SASDatasetName="PP"
           Purpose="Tabulation"
           def:Structure="One record per PK parameter per time-concentration profile per modeling method per subject"
           def:Class="FINDINGS"
           def:ArchiveLocationID="Location.pp">
           <Description>
             <TranslatedText xml:lang="en">Pharmacokinetics Parameters</TranslatedText>
           </Description>

             <ItemRef ItemOID="IT.PP.STUDYID"
               OrderNumber="1"
               Mandatory="Yes"
               KeySequence="1"
               Role="Identifier"
               RoleCodeListOID="RLCT1"
               />
             <ItemRef ItemOID="IT.PP.DOMAIN"
               OrderNumber="2"
               Mandatory="Yes"
               Role="Identifier"
               RoleCodeListOID="RLCT1"
               />
             <ItemRef ItemOID="IT.PP.USUBJID"
               OrderNumber="3"
               Mandatory="Yes"
               MethodOID="MT.PP.USUBJID"
               KeySequence="2"
               Role="Identifier"
               RoleCodeListOID="RLCT1"
               />
             <ItemRef ItemOID="IT.PP.PPSEQ"
               OrderNumber="4"
               Mandatory="Yes"
               MethodOID="MT.PP.PPSEQ"
               Role="Identifier"
               RoleCodeListOID="RLCT1"
               />
             <ItemRef ItemOID="IT.PP.PPGRPID"
               OrderNumber="5"
               Mandatory="No"
               Role="Identifier"
               RoleCodeListOID="RLCT1"
               />
             <ItemRef ItemOID="IT.PP.PPTESTCD"
               OrderNumber="6"
               Mandatory="Yes"
               KeySequence="3"
               Role="Topic"
               RoleCodeListOID="RLCT1"
               />
             <ItemRef ItemOID="IT.PP.PPTEST"
               OrderNumber="7"
               Mandatory="Yes"
               Role="Synonym Qualifier"
               RoleCodeListOID="RLCT1"
               />
             <ItemRef ItemOID="IT.PP.PPCAT"
               OrderNumber="8"
               Mandatory="No"
               KeySequence="4"
               Role="Grouping Qualifier"
               RoleCodeListOID="RLCT1"
               />
             <ItemRef ItemOID="IT.PP.PPORRES"
               OrderNumber="9"
               Mandatory="No"
               Role="Result Qualifier"
               RoleCodeListOID="RLCT1"
               />
             <ItemRef ItemOID="IT.PP.PPORRESU"
               OrderNumber="10"
               Mandatory="No"
               Role="Variable Qualifier"
               RoleCodeListOID="RLCT1"
               />
             <ItemRef ItemOID="IT.PP.PPSTRESC"
               OrderNumber="11"
               Mandatory="No"
               MethodOID="MT.PP.PPSTRESC"
               Role="Result Qualifier"
               RoleCodeListOID="RLCT1"
               />
             <ItemRef ItemOID="IT.PP.PPSTRESN"
               OrderNumber="12"
               Mandatory="No"
               MethodOID="MT.PP.PPSTRESN"
               Role="Result Qualifier"
               RoleCodeListOID="RLCT1"
               />
             <ItemRef ItemOID="IT.PP.PPSTRESU"
               OrderNumber="13"
               Mandatory="No"
               MethodOID="MT.PP.PPSTRESU"
               Role="Variable Qualifier"
               RoleCodeListOID="RLCT1"
               />
             <ItemRef ItemOID="IT.PP.PPSTAT"
               OrderNumber="14"
               Mandatory="No"
               Role="Record Qualifier"
               RoleCodeListOID="RLCT1"
               />
             <ItemRef ItemOID="IT.PP.PPSPEC"
               OrderNumber="15"
               Mandatory="No"
               Role="Record Qualifier"
               RoleCodeListOID="RLCT1"
               />
             <ItemRef ItemOID="IT.PP.EPOCH"
               OrderNumber="16"
               Mandatory="No"
               Role="Timing"
               RoleCodeListOID="RLCT1"
               />
             <ItemRef ItemOID="IT.PP.PPRFTDTC"
               OrderNumber="17"
               Mandatory="No"
               KeySequence="5"
               Role="Timing"
               RoleCodeListOID="RLCT1"
               />
           <def:leaf ID="Location.pp" xlink:href="./pp.xpt">
           <def:title>pp.xpt</def:title>
           </def:leaf>
         </ItemGroupDef>


         <!-- ** ItemGroupDef for: VS ** -->

         <ItemGroupDef OID="IG.VS"
           Domain="VS"
           Name="VS"
           Repeating="Yes"
           IsReferenceData="No"
           SASDatasetName="VS"
           Purpose="Tabulation"
           def:Structure="One record per vital sign measurement per time point per visit per subject"
           def:Class="FINDINGS"
           def:ArchiveLocationID="Location.vs">
           <Description>
             <TranslatedText xml:lang="en">Vital Signs</TranslatedText>
           </Description>

             <ItemRef ItemOID="IT.VS.STUDYID"
               OrderNumber="1"
               Mandatory="Yes"
               KeySequence="1"
               Role="Identifier"
               RoleCodeListOID="RLCT1"
               />
             <ItemRef ItemOID="IT.VS.DOMAIN"
               OrderNumber="2"
               Mandatory="Yes"
               Role="Identifier"
               RoleCodeListOID="RLCT1"
               />
             <ItemRef ItemOID="IT.VS.USUBJID"
               OrderNumber="3"
               Mandatory="Yes"
               MethodOID="MT.VS.USUBJID"
               KeySequence="2"
               Role="Identifier"
               RoleCodeListOID="RLCT1"
               />
             <ItemRef ItemOID="IT.VS.VSSEQ"
               OrderNumber="4"
               Mandatory="Yes"
               MethodOID="MT.VS.VSSEQ"
               Role="Identifier"
               RoleCodeListOID="RLCT1"
               />
             <ItemRef ItemOID="IT.VS.VSTESTCD"
               OrderNumber="5"
               Mandatory="Yes"
               KeySequence="3"
               Role="Topic"
               RoleCodeListOID="RLCT1"
               />
             <ItemRef ItemOID="IT.VS.VSTEST"
               OrderNumber="6"
               Mandatory="Yes"
               Role="Synonym Qualifier"
               RoleCodeListOID="RLCT1"
               />
             <ItemRef ItemOID="IT.VS.VSPOS"
               OrderNumber="7"
               Mandatory="No"
               Role="Record Qualifier"
               RoleCodeListOID="RLCT1"
               />
             <ItemRef ItemOID="IT.VS.VSORRES"
               OrderNumber="8"
               Mandatory="No"
               Role="Result Qualifier"
               RoleCodeListOID="RLCT1"
               />
             <ItemRef ItemOID="IT.VS.VSORRESU"
               OrderNumber="9"
               Mandatory="No"
               Role="Variable Qualifier"
               RoleCodeListOID="RLCT1"
               />
             <ItemRef ItemOID="IT.VS.VSSTRESC"
               OrderNumber="10"
               Mandatory="No"
               MethodOID="MT.VS.VSSTRESC"
               Role="Result Qualifier"
               RoleCodeListOID="RLCT1"
               />
             <ItemRef ItemOID="IT.VS.VSSTRESN"
               OrderNumber="11"
               Mandatory="No"
               MethodOID="MT.VS.VSSTRESN"
               Role="Result Qualifier"
               RoleCodeListOID="RLCT1"
               />
             <ItemRef ItemOID="IT.VS.VSSTRESU"
               OrderNumber="12"
               Mandatory="No"
               Role="Variable Qualifier"
               RoleCodeListOID="RLCT1"
               />
             <ItemRef ItemOID="IT.VS.VSSTAT"
               OrderNumber="13"
               Mandatory="No"
               Role="Record Qualifier"
               RoleCodeListOID="RLCT1"
               />
             <ItemRef ItemOID="IT.VS.VSLOC"
               OrderNumber="14"
               Mandatory="No"
               Role="Record Qualifier"
               RoleCodeListOID="RLCT1"
               />
             <ItemRef ItemOID="IT.VS.VSBLFL"
               OrderNumber="15"
               Mandatory="No"
               MethodOID="MT.VS.VSBLFL"
               Role="Record Qualifier"
               RoleCodeListOID="RLCT1"
               />
             <ItemRef ItemOID="IT.VS.VISITNUM"
               OrderNumber="16"
               Mandatory="No"
               KeySequence="4"
               Role="Timing"
               RoleCodeListOID="RLCT1"
               />
             <ItemRef ItemOID="IT.VS.VISIT"
               OrderNumber="17"
               Mandatory="No"
               Role="Timing"
               RoleCodeListOID="RLCT1"
               />
             <ItemRef ItemOID="IT.VS.VISITDY"
               OrderNumber="18"
               Mandatory="No"
               Role="Timing"
               RoleCodeListOID="RLCT1"
               />
             <ItemRef ItemOID="IT.VS.EPOCH"
               OrderNumber="19"
               Mandatory="No"
               MethodOID="MT.VS.EPOCH"
               Role="Timing"
               RoleCodeListOID="RLCT1"
               />
             <ItemRef ItemOID="IT.VS.VSDTC"
               OrderNumber="20"
               Mandatory="No"
               Role="Timing"
               RoleCodeListOID="RLCT1"
               />
             <ItemRef ItemOID="IT.VS.VSDY"
               OrderNumber="21"
               Mandatory="No"
               MethodOID="MT.VS.VSDY"
               Role="Timing"
               RoleCodeListOID="RLCT1"
               />
             <ItemRef ItemOID="IT.VS.VSTPT"
               OrderNumber="22"
               Mandatory="No"
               Role="Timing"
               RoleCodeListOID="RLCT1"
               />
             <ItemRef ItemOID="IT.VS.VSTPTNUM"
               OrderNumber="23"
               Mandatory="No"
               KeySequence="6"
               Role="Timing"
               RoleCodeListOID="RLCT1"
               />
             <ItemRef ItemOID="IT.VS.VSELTM"
               OrderNumber="24"
               Mandatory="No"
               Role="Timing"
               RoleCodeListOID="RLCT1"
               />
             <ItemRef ItemOID="IT.VS.VSTPTREF"
               OrderNumber="25"
               Mandatory="No"
               KeySequence="5"
               Role="Timing"
               RoleCodeListOID="RLCT1"
               />
             <ItemRef ItemOID="IT.VS.VSRFTDTC"
               OrderNumber="26"
               Mandatory="No"
               Role="Timing"
               RoleCodeListOID="RLCT1"
               />
           <def:leaf ID="Location.vs" xlink:href="./vs.xpt">
           <def:title>vs.xpt</def:title>
           </def:leaf>
         </ItemGroupDef>


         <!-- ** ItemGroupDef for: RELREC ** -->

         <ItemGroupDef OID="IG.RELREC"
           Domain="RELREC"
           Name="RELREC"
           Repeating="Yes"
           IsReferenceData="No"
           SASDatasetName="RELREC"
           Purpose="Tabulation"
           def:Structure="One record per related record, group of records or dataset"
           def:Class="RELATIONSHIP"
           def:ArchiveLocationID="Location.relrec">
           <Description>
             <TranslatedText xml:lang="en">Related Records</TranslatedText>
           </Description>

             <ItemRef ItemOID="IT.RELREC.STUDYID"
               OrderNumber="1"
               Mandatory="Yes"
               KeySequence="1"
               RoleCodeListOID="RLCT1"
               />
             <ItemRef ItemOID="IT.RELREC.RDOMAIN"
               OrderNumber="2"
               Mandatory="Yes"
               KeySequence="2"
               RoleCodeListOID="RLCT1"
               />
             <ItemRef ItemOID="IT.RELREC.USUBJID"
               OrderNumber="3"
               Mandatory="Yes"
               MethodOID="MT.RELREC.USUBJID"
               KeySequence="3"
               RoleCodeListOID="RLCT1"
               />
             <ItemRef ItemOID="IT.RELREC.IDVAR"
               OrderNumber="4"
               Mandatory="Yes"
               KeySequence="4"
               RoleCodeListOID="RLCT1"
               />
             <ItemRef ItemOID="IT.RELREC.IDVARVAL"
               OrderNumber="5"
               Mandatory="No"
               KeySequence="5"
               RoleCodeListOID="RLCT1"
               />
             <ItemRef ItemOID="IT.RELREC.RELTYPE"
               OrderNumber="6"
               Mandatory="No"
               RoleCodeListOID="RLCT1"
               />
             <ItemRef ItemOID="IT.RELREC.RELID"
               OrderNumber="7"
               Mandatory="Yes"
			   KeySequence="6"
               RoleCodeListOID="RLCT1"
               />
           <def:leaf ID="Location.relrec" xlink:href="./relrec.xpt">
           <def:title>relrec.xpt</def:title>
           </def:leaf>
         </ItemGroupDef>


         <!-- ** ItemGroupDef for: SUPPAE ** -->

         <ItemGroupDef OID="IG.SUPPAE"
           Domain="SUPPAE"
           Name="SUPPAE"
           Repeating="Yes"
           IsReferenceData="No"
           SASDatasetName="SUPPAE"
           Purpose="Tabulation"
           def:Structure="One record per qualifier variable name per identifying variable value per identifying variable per subject"
           def:Class="RELATIONSHIP"
           def:ArchiveLocationID="Location.suppae">
           <Description>
             <TranslatedText xml:lang="en">Supplemental Qualifiers for AE</TranslatedText>
           </Description>

             <ItemRef ItemOID="IT.SUPPAE.STUDYID"
               OrderNumber="1"
               Mandatory="Yes"
               KeySequence="1"
               Role="Identifier"
               RoleCodeListOID="RLCT1"
               />
             <ItemRef ItemOID="IT.SUPPAE.RDOMAIN"
               OrderNumber="2"
               Mandatory="No"
               KeySequence="2"
               Role="Identifier"
               RoleCodeListOID="RLCT1"
               />
             <ItemRef ItemOID="IT.SUPPAE.USUBJID"
               OrderNumber="3"
               Mandatory="Yes"
               MethodOID="MT.SUPPAE.USUBJID"
               KeySequence="3"
               Role="Identifier"
               RoleCodeListOID="RLCT1"
               />
             <ItemRef ItemOID="IT.SUPPAE.IDVAR"
               OrderNumber="4"
               Mandatory="No"
               KeySequence="4"
               Role="Identifier"
               RoleCodeListOID="RLCT1"
               />
             <ItemRef ItemOID="IT.SUPPAE.IDVARVAL"
               OrderNumber="5"
               Mandatory="No"
               KeySequence="5"
               Role="Identifier"
               RoleCodeListOID="RLCT1"
               />
             <ItemRef ItemOID="IT.SUPPAE.QNAM"
               OrderNumber="6"
               Mandatory="No"
               KeySequence="6"
               Role="Topic"
               RoleCodeListOID="RLCT1"
               />
             <ItemRef ItemOID="IT.SUPPAE.QLABEL"
               OrderNumber="7"
               Mandatory="No"
               Role="Synonym Qualifier"
               RoleCodeListOID="RLCT1"
               />
             <ItemRef ItemOID="IT.SUPPAE.QVAL"
               OrderNumber="8"
               Mandatory="No"
               Role="Result Qualifier"
               RoleCodeListOID="RLCT1"
               />
             <ItemRef ItemOID="IT.SUPPAE.QORIG"
               OrderNumber="9"
               Mandatory="No"
               Role="Record Qualifier"
               RoleCodeListOID="RLCT1"
               />
             <ItemRef ItemOID="IT.SUPPAE.QEVAL"
               OrderNumber="10"
               Mandatory="No"
               Role="Record Qualifier"
               RoleCodeListOID="RLCT1"
               />
           <def:leaf ID="Location.suppae" xlink:href="./suppae.xpt">
           <def:title>suppae.xpt</def:title>
           </def:leaf>
         </ItemGroupDef>


         <!-- ** ItemGroupDef for: SUPPCM ** -->

         <ItemGroupDef OID="IG.SUPPCM"
           Domain="SUPPCM"
           Name="SUPPCM"
           Repeating="Yes"
           IsReferenceData="No"
           SASDatasetName="SUPPCM"
           Purpose="Tabulation"
           def:Structure="One record per qualifier variable name per identifying variable value per identifying variable per subject"
           def:Class="RELATIONSHIP"
           def:ArchiveLocationID="Location.suppcm">
           <Description>
             <TranslatedText xml:lang="en">Supplemental Qualifiers for CM</TranslatedText>
           </Description>

             <ItemRef ItemOID="IT.SUPPCM.STUDYID"
               OrderNumber="1"
               Mandatory="Yes"
               KeySequence="1"
               Role="Identifier"
               RoleCodeListOID="RLCT1"
               />
             <ItemRef ItemOID="IT.SUPPCM.RDOMAIN"
               OrderNumber="2"
               Mandatory="No"
               KeySequence="2"
               Role="Identifier"
               RoleCodeListOID="RLCT1"
               />
             <ItemRef ItemOID="IT.SUPPCM.USUBJID"
               OrderNumber="3"
               Mandatory="Yes"
               MethodOID="MT.SUPPCM.USUBJID"
               KeySequence="3"
               Role="Identifier"
               RoleCodeListOID="RLCT1"
               />
             <ItemRef ItemOID="IT.SUPPCM.IDVAR"
               OrderNumber="4"
               Mandatory="No"
               KeySequence="4"
               Role="Identifier"
               RoleCodeListOID="RLCT1"
               />
             <ItemRef ItemOID="IT.SUPPCM.IDVARVAL"
               OrderNumber="5"
               Mandatory="No"
               KeySequence="5"
               Role="Identifier"
               RoleCodeListOID="RLCT1"
               />
             <ItemRef ItemOID="IT.SUPPCM.QNAM"
               OrderNumber="6"
               Mandatory="No"
               KeySequence="6"
               Role="Topic"
               RoleCodeListOID="RLCT1"
               />
             <ItemRef ItemOID="IT.SUPPCM.QLABEL"
               OrderNumber="7"
               Mandatory="No"
               Role="Synonym Qualifier"
               RoleCodeListOID="RLCT1"
               />
             <ItemRef ItemOID="IT.SUPPCM.QVAL"
               OrderNumber="8"
               Mandatory="No"
               Role="Result Qualifier"
               RoleCodeListOID="RLCT1"
               />
             <ItemRef ItemOID="IT.SUPPCM.QORIG"
               OrderNumber="9"
               Mandatory="No"
               Role="Record Qualifier"
               RoleCodeListOID="RLCT1"
               />
             <ItemRef ItemOID="IT.SUPPCM.QEVAL"
               OrderNumber="10"
               Mandatory="No"
               Role="Record Qualifier"
               RoleCodeListOID="RLCT1"
               />
